<?xml version="1.0" encoding="UTF-8"?>

<Bundle xmlns="http://hl7.org/fhir">
  <id value="AcknowledgementMessage-Example2"/>
  <meta>
    <profile value="http://cdc.gov/nchs/nvss/fhir/vital-records-messaging/StructureDefinition/VRM-AcknowledgementMessage"/>
  </meta>
  <type value="message"/>
  <timestamp value="2021-05-20T00:00:00Z"/>
  <entry>
    <fullUrl value="http://www.example.org/fhir/Header/AcknowledgementHeader-Example2"/>
    <resource>
      <MessageHeader>
        <id value="AcknowledgementHeader-Example2"/>
        <meta>
          <profile value="http://cdc.gov/nchs/nvss/fhir/vital-records-messaging/StructureDefinition/VRM-AcknowledgementHeader"/>
        </meta>
        <text>
          <status value="generated"/><div xmlns="http://www.w3.org/1999/xhtml"><a name="MessageHeader_AcknowledgementHeader-Example2"> </a><p class="res-header-id"><b>Generated Narrative: MessageHeader AcknowledgementHeader-Example2</b></p><a name="AcknowledgementHeader-Example2"> </a><a name="hcAcknowledgementHeader-Example2"> </a><a name="AcknowledgementHeader-Example2-en-US"> </a><p><b>event</b>: <a href="http://nchs.cdc.gov/vrdr_acknowledgement">http://nchs.cdc.gov/vrdr_acknowledgement</a></p><h3>Destinations</h3><table class="grid"><tr><td style="display: none">-</td><td><b>Endpoint</b></td></tr><tr><td style="display: none">*</td><td><a href="https://sos.ny.gov/vitalrecords">https://sos.ny.gov/vitalrecords</a></td></tr></table><h3>Sources</h3><table class="grid"><tr><td style="display: none">-</td><td><b>Endpoint</b></td></tr><tr><td style="display: none">*</td><td><a href="http://nchs.cdc.gov/vrdr_acknowledgement">http://nchs.cdc.gov/vrdr_acknowledgement</a></td></tr></table><h3>Responses</h3><table class="grid"><tr><td style="display: none">-</td><td><b>Identifier</b></td><td><b>Code</b></td><td><b>Details</b></td></tr><tr><td style="display: none">*</td><td>SubmissionHeader-Example1</td><td>OK</td><td><a href="Bundle-AcknowledgementMessage-Example2.html#http-//www.example.org/fhir/OperationOutcome/Outcome-Example2">Bundle: type = message; timestamp = 2021-05-20 00:00:00+0000</a></td></tr></table><p><b>focus</b>: <a href="Bundle-AcknowledgementMessage-Example1.html#http-//www.example.org/fhir/Parameters/Parameters-Example1">Bundle: type = message; timestamp = 2021-05-20 00:00:00+0000</a></p></div>
        </text>
        <eventUri value="http://nchs.cdc.gov/vrdr_acknowledgement"/>
        <destination>
          <endpoint value="https://sos.ny.gov/vitalrecords"/>
        </destination>
        <source>
          <endpoint value="http://nchs.cdc.gov/vrdr_acknowledgement"/>
        </source>
        <response>
          <identifier value="SubmissionHeader-Example1"/>
          <code value="ok"/>
          <details>
            <reference value="http://www.example.org/fhir/OperationOutcome/Outcome-Example2"/>
          </details>
        </response>
        <focus>
          <reference value="http://www.example.org/fhir/Parameters/Parameters-Example1"/>
        </focus>
      </MessageHeader>
    </resource>
  </entry>
  <entry>
    <fullUrl value="http://www.example.org/fhir/Parameters/Parameters-Example1"/>
    <resource>
      <Parameters>
        <id value="Parameters-Example1"/>
        <meta>
          <profile value="http://cdc.gov/nchs/nvss/fhir/vital-records-messaging/StructureDefinition/VRM-MessageParameters"/>
        </meta>
        <parameter>
          <name value="jurisdiction_id"/>
          <valueString value="NY"/>
        </parameter>
        <parameter>
          <name value="cert_no"/>
          <valueUnsignedInt value="123456"/>
        </parameter>
        <parameter>
          <name value="event_year"/>
          <valueUnsignedInt value="2018"/>
        </parameter>
        <parameter>
          <name value="state_auxiliary_id"/>
          <valueString value="abcdef10"/>
        </parameter>
        <parameter>
          <name value="payload_version_id"/>
          <valueString value="VRDRSTU2.2"/>
        </parameter>
      </Parameters>
    </resource>
  </entry>
  <entry>
    <fullUrl value="http://www.example.org/fhir/OperationOutcome/Outcome-Example2"/>
    <resource>
      <OperationOutcome>
        <id value="Outcome-Example2"/>
        <meta>
          <profile value="http://cdc.gov/nchs/nvss/fhir/vital-records-messaging/StructureDefinition/VRM-Outcome"/>
        </meta>
        <text>
          <status value="generated"/><div xmlns="http://www.w3.org/1999/xhtml"><a name="OperationOutcome_Outcome-Example2"> </a><p class="res-header-id"><b>Generated Narrative: OperationOutcome Outcome-Example2</b></p><a name="Outcome-Example2"> </a><a name="hcOutcome-Example2"> </a><a name="Outcome-Example2-en-US"> </a><h3>Issues</h3><table class="grid"><tr><td style="display: none">-</td><td><b>Severity</b></td><td><b>Code</b></td><td><b>Diagnostics</b></td></tr><tr><td style="display: none">*</td><td>Warning</td><td>Structural Issue</td><td>Description of How Injury Occurred (HOWINJ) in InjuryIncident(Observation).value.text exceeded IJE Field size (250) and was truncated.</td></tr></table></div>
        </text>
        <issue>
          <severity value="warning"/>
          <code value="structure"/>
          <diagnostics value="Description of How Injury Occurred (HOWINJ) in InjuryIncident(Observation).value.text exceeded IJE Field size (250) and was truncated."/>
        </issue>
      </OperationOutcome>
    </resource>
  </entry>
</Bundle>