{
  "resourceType" : "Bundle",
  "id" : "BirthReportUpdateMessage-Example1",
  "meta" : {
    "profile" : ["http://cdc.gov/nchs/nvss/fhir/vital-records-messaging/StructureDefinition/VRM-BirthReportUpdateMessage"]
  },
  "type" : "message",
  "timestamp" : "2022-08-20T00:00:00Z",
  "entry" : [{
    "fullUrl" : "http://www.example.org/fhir/Header/BirthReportUpdateHeader-Example1",
    "resource" : {
      "resourceType" : "MessageHeader",
      "id" : "BirthReportUpdateHeader-Example1",
      "meta" : {
        "profile" : ["http://cdc.gov/nchs/nvss/fhir/vital-records-messaging/StructureDefinition/VRM-UpdateHeader"]
      },
      "text" : {
        "status" : "generated",
        "div" : "<div xmlns=\"http://www.w3.org/1999/xhtml\"><a name=\"MessageHeader_BirthReportUpdateHeader-Example1\"> </a><p class=\"res-header-id\"><b>Generated Narrative: MessageHeader BirthReportUpdateHeader-Example1</b></p><a name=\"BirthReportUpdateHeader-Example1\"> </a><a name=\"hcBirthReportUpdateHeader-Example1\"> </a><a name=\"BirthReportUpdateHeader-Example1-en-US\"> </a><p><b>event</b>: <a href=\"http://nchs.cdc.gov/birth_submission_update\">http://nchs.cdc.gov/birth_submission_update</a></p><h3>Destinations</h3><table class=\"grid\"><tr><td style=\"display: none\">-</td><td><b>Endpoint</b></td></tr><tr><td style=\"display: none\">*</td><td><a href=\"https://nchs.cdc.gov/vitalrecords\">https://nchs.cdc.gov/vitalrecords</a></td></tr></table><h3>Sources</h3><table class=\"grid\"><tr><td style=\"display: none\">-</td><td><b>Endpoint</b></td></tr><tr><td style=\"display: none\">*</td><td><a href=\"https://sos.ny.gov/vitalrecords\">https://sos.ny.gov/vitalrecords</a></td></tr></table><p><b>focus</b>: </p><ul><li><a href=\"Bundle-BirthReportMessage-Example1.html#http-//www.example.org/fhir/Bundle/DummyBundle\">Bundle: type = message; timestamp = 2022-08-20 00:00:00+0000</a></li><li><a href=\"Bundle-BirthReportMessage-Example1.html#http-//www.example.org/fhir/Parameters/ParametersBirth-Example1\">Bundle: type = message; timestamp = 2022-08-20 00:00:00+0000</a></li></ul></div>"
      },
      "eventUri" : "http://nchs.cdc.gov/birth_submission_update",
      "destination" : [{
        "endpoint" : "https://nchs.cdc.gov/vitalrecords"
      }],
      "source" : {
        "endpoint" : "https://sos.ny.gov/vitalrecords"
      },
      "focus" : [{
        "reference" : "http://www.example.org/fhir/Bundle/DummyBundle"
      },
      {
        "reference" : "http://www.example.org/fhir/Parameters/ParametersBirth-Example1"
      }]
    }
  },
  {
    "fullUrl" : "http://www.example.org/fhir/Parameters/ParametersBirth-Example1",
    "resource" : {
      "resourceType" : "Parameters",
      "id" : "ParametersBirth-Example1",
      "meta" : {
        "profile" : ["http://cdc.gov/nchs/nvss/fhir/vital-records-messaging/StructureDefinition/VRM-MessageParameters"]
      },
      "parameter" : [{
        "name" : "jurisdiction_id",
        "valueString" : "NY"
      },
      {
        "name" : "cert_no",
        "valueUnsignedInt" : 111111
      },
      {
        "name" : "event_year",
        "valueUnsignedInt" : 2022
      },
      {
        "name" : "state_auxiliary_id",
        "valueString" : "abcdef10"
      },
      {
        "name" : "payload_version_id",
        "valueString" : "BFDRSTU2.0"
      }]
    }
  },
  {
    "fullUrl" : "http://www.example.org/fhir/Bundle/DummyBundle",
    "resource" : {
      "resourceType" : "Bundle",
      "id" : "DummyBundle",
      "meta" : {
        "profile" : ["http://cdc.gov/nchs/nvss/fhir/vital-records-messaging/StructureDefinition/VRM-MessageBundle"]
      },
      "type" : "collection",
      "entry" : [{
        "fullUrl" : "http://www.example.org/fhir/Parameters/ParametersBirth-Example1",
        "resource" : {
          "resourceType" : "Parameters",
          "id" : "ParametersBirth-Example1",
          "meta" : {
            "profile" : ["http://cdc.gov/nchs/nvss/fhir/vital-records-messaging/StructureDefinition/VRM-MessageParameters"]
          },
          "parameter" : [{
            "name" : "jurisdiction_id",
            "valueString" : "NY"
          },
          {
            "name" : "cert_no",
            "valueUnsignedInt" : 111111
          },
          {
            "name" : "event_year",
            "valueUnsignedInt" : 2022
          },
          {
            "name" : "state_auxiliary_id",
            "valueString" : "abcdef10"
          },
          {
            "name" : "payload_version_id",
            "valueString" : "BFDRSTU2.0"
          }]
        }
      }]
    }
  }]
}