{
  "resourceType": "Bundle",
  "id": "251aae6d-1a79-44f7-bfe2-b3c9194feab4",
  "meta": {
    "profile": [
      "http://hl7.org/fhir/us/vrdr/StructureDefinition/VRDR-Death-Certificate-Document"
    ]
  },
  "identifier": {
    "system": "http://nchs.cdc.gov/vrdr_id",
    "value": "2022MA000024"
  },
  "type": "document",
  "timestamp": "2022-01-25T13:21:17.186343-05:00",
  "entry": [
    {
      "fullUrl": "urn:uuid:7c51fa26-8ac6-4a8e-b6af-b18331732dea",
      "resource": {
        "resourceType": "Composition",
        "id": "7c51fa26-8ac6-4a8e-b6af-b18331732dea",
        "meta": {
          "profile": [
            "http://hl7.org/fhir/us/vrdr/StructureDefinition/VRDR-Death-Certificate"
          ]
        },
        "status": "final",
        "type": {
          "coding": [
            {
              "system": "http://loinc.org",
              "code": "64297-5",
              "display": "Death certificate"
            }
          ]
        },
        "subject": {
          "reference": "urn:uuid:b167f170-63a2-41c8-a807-693f22c9d35e"
        },
        "date": "2022-01-15",
        "author": [
          {
            "reference": "urn:uuid:48296dac-6696-401e-96ee-868d9b859541"
          }
        ],
        "title": "Death Certificate",
        "attester": [
          {
            "mode": "legal",
            "time": "2022-01-14",
            "party": {
              "reference": "urn:uuid:48296dac-6696-401e-96ee-868d9b859541"
            }
          }
        ],
        "event": [
          {
            "code": [
              {
                "coding": [
                  {
                    "system": "http://snomed.info/sct",
                    "code": "103693007",
                    "display": "Diagnostic procedure (procedure)"
                  }
                ]
              }
            ],
            "detail": [
              {
                "reference": "urn:uuid:571a764c-1c84-4bef-b84f-354c84d586f6"
              }
            ]
          }
        ],
        "section": [
          {
            "entry": [
              {
                "reference": "urn:uuid:b167f170-63a2-41c8-a807-693f22c9d35e"
              },
              {
                "reference": "urn:uuid:48296dac-6696-401e-96ee-868d9b859541"
              },
              {
                "reference": "urn:uuid:c775aca6-dc34-4356-9e66-314a34d5a2f4"
              },
              {
                "reference": "urn:uuid:b9f4bf8b-35ee-4a0f-aeec-bea7870efdd5"
              },
              {
                "reference": "urn:uuid:571a764c-1c84-4bef-b84f-354c84d586f6"
              },
              {
                "reference": "urn:uuid:fbc307e1-9474-4ed9-b9be-3aeca9d3e6d6"
              },
              {
                "reference": "urn:uuid:124b7e26-563f-42aa-b4f6-ba3a9289ade3"
              },
              {
                "reference": "urn:uuid:d0bdbdd1-f3a6-41bf-b693-53a8fc4994f0"
              },
              {
                "reference": "urn:uuid:560a1daa-24a8-449a-bf91-adcd65400855"
              },
              {
                "reference": "urn:uuid:2c2d3488-3c07-4341-8da5-8105cfa52646"
              },
              {
                "reference": "urn:uuid:62250bc5-30ad-448e-b80c-f3075fb9ce2d"
              },
              {
                "reference": "urn:uuid:55e862dd-5f8e-4f6a-bfd8-d394a421eac8"
              },
              {
                "reference": "urn:uuid:3ec78ed7-55c6-4d2e-bb6a-b15f8d1a727f"
              },
              {
                "reference": "urn:uuid:1e185c1d-6f25-4834-84cf-5672219f67fe"
              },
              {
                "reference": "urn:uuid:fdf8fc17-efa2-444f-be2a-59beb9fddd9f"
              },
              {
                "reference": "urn:uuid:21027f3e-8620-4fd9-98dd-ae39c9c9463f"
              },
              {
                "reference": "urn:uuid:7dd07999-0e60-4580-bbfd-1c7a5eec37b3"
              },
              {
                "reference": "urn:uuid:4b5b6c34-b496-4a59-9754-e68a6ab462dd"
              },
              {
                "reference": "urn:uuid:314778dd-1d6e-49cd-ac62-ef7b817ac0c9"
              },
              {
                "reference": "urn:uuid:b6f548b1-2960-4a5f-a366-2ce55418ac96"
              },
              {
                "reference": "urn:uuid:03b48eab-044f-4a97-9081-ef9981f4251e"
              },
              {
                "reference": "urn:uuid:d1684602-d300-4828-a9d6-cec16e0c090e"
              },
              {
                "reference": "urn:uuid:f65a4027-b6b0-455b-a03e-3af747ecdbbf"
              },
              {
                "reference": "urn:uuid:f8c0cff7-3bf2-411f-8c20-532b68bc2d80"
              },
              {
                "reference": "urn:uuid:a80c8006-cfb1-4f2c-abe4-371a311be09a"
              },
              {
                "reference": "urn:uuid:04df05cf-5f04-448b-a7a5-f2f290abcb09"
              },
              {
                "reference": "urn:uuid:37423dc9-f772-4012-b249-891a789e88b4"
              },
              {
                "reference": "urn:uuid:18af41c9-0228-419f-9b30-67fca7fb42a5"
              },
              {
                "reference": "urn:uuid:e4d7dc48-b739-4f3d-8e05-1dbb8a203f93"
              },
              {
                "reference": "urn:uuid:ae913e8b-656e-400e-b0d5-54f016b70ba6"
              },
              {
                "reference": "urn:uuid:f25f8e45-6ca4-4ed6-9ab1-f894ce3418ab"
              }
            ]
          }
        ]
      }
    },
    {
      "fullUrl": "urn:uuid:b167f170-63a2-41c8-a807-693f22c9d35e",
      "resource": {
        "resourceType": "Patient",
        "id": "b167f170-63a2-41c8-a807-693f22c9d35e",
        "meta": {
          "profile": [
            "http://hl7.org/fhir/us/vrdr/StructureDefinition/VRDR-Decedent"
          ]
        },
        "extension": [
          {
            "extension": [
              {
                "url": "ombCategory",
                "valueCoding": {
                  "system": "urn:oid:2.16.840.1.113883.6.238",
                  "code": "2106-3",
                  "display": "White"
                }
              },
              {
                "url": "ombCategory",
                "valueCoding": {
                  "system": "urn:oid:2.16.840.1.113883.6.238",
                  "code": "2054-5",
                  "display": "Black"
                }
              },
              {
                "url": "text",
                "valueString": "White, Black"
              }
            ],
            "url": "http://hl7.org/fhir/us/core/StructureDefinition/us-core-race"
          },
          {
            "extension": [
              {
                "url": "detailed",
                "valueCoding": {
                  "system": "urn:oid:2.16.840.1.113883.6.238",
                  "code": "2182-4",
                  "display": "Cuban"
                }
              },
              {
                "url": "text",
                "valueString": "Cuban"
              }
            ],
            "url": "http://hl7.org/fhir/us/core/StructureDefinition/us-core-ethnicity"
          },
          {
            "url": "http://hl7.org/fhir/us/core/StructureDefinition/us-core-birthsex",
            "valueCode": "M"
          },
          {
            "url": "http://hl7.org/fhir/StructureDefinition/patient-birthPlace",
            "valueAddress": {
              "state": "TX",
              "country": "US"
            }
          }
        ],
        "identifier": [
          {
            "type": {
              "coding": [
                {
                  "system": "http://terminology.hl7.org/CodeSystem/v2-0203",
                  "code": "SB",
                  "display": "Social Beneficiary Identifier"
                }
              ]
            },
            "system": "http://hl7.org/fhir/sid/us-ssn",
            "value": "456123789"
          }
        ],
        "name": [
          {
            "use": "official",
            "family": "Perez",
            "given": [
              "Javier",
              "Luis"
            ],
            "suffix": [
              "Jr."
            ]
          }
        ],
        "birthDate": "1964-02-24",
        "address": [
          {
            "extension": [
              {
                "url": "http://hl7.org/fhir/us/vrdr/StructureDefinition/Within-City-Limits-Indicator",
                "valueCoding": {
                  "system": "urn:oid:2.16.840.1.113883.12.136",
                  "code": "N",
                  "display": "No"
                }
              }
            ],
            "line": [
              "143 Taylor Street"
            ],
            "city": "Annapolis",
            "district": "Anne Arundel",
            "state": "MD",
            "country": "US"
          }
        ],
        "maritalStatus": {
          "coding": [
            {
              "system": "http://terminology.hl7.org/CodeSystem/v3-MaritalStatus",
              "code": "M",
              "display": "Married"
            }
          ]
        }
      }
    },
    {
      "fullUrl": "urn:uuid:48296dac-6696-401e-96ee-868d9b859541",
      "resource": {
        "resourceType": "Practitioner",
        "id": "48296dac-6696-401e-96ee-868d9b859541",
        "meta": {
          "profile": [
            "http://hl7.org/fhir/us/vrdr/StructureDefinition/VRDR-Certifier"
          ]
        },
        "name": [
          {
            "use": "official",
            "family": "Lost",
            "given": [
              "Hope"
            ]
          }
        ],
        "address": [
          {
            "line": [
              "RR1"
            ],
            "city": "Dover",
            "state": "DE",
            "country": "US"
          }
        ]
      }
    },
    {
      "fullUrl": "urn:uuid:c775aca6-dc34-4356-9e66-314a34d5a2f4",
      "resource": {
        "resourceType": "Practitioner",
        "id": "c775aca6-dc34-4356-9e66-314a34d5a2f4",
        "meta": {
          "profile": [
            "http://hl7.org/fhir/us/vrdr/StructureDefinition/VRDR-Death-Pronouncement-Performer"
          ]
        },
        "name": [
          {
            "use": "official",
            "family": "Lost",
            "given": [
              "Hope"
            ]
          }
        ]
      }
    },
    {
      "fullUrl": "urn:uuid:b9f4bf8b-35ee-4a0f-aeec-bea7870efdd5",
      "resource": {
        "resourceType": "Practitioner",
        "id": "b9f4bf8b-35ee-4a0f-aeec-bea7870efdd5",
        "meta": {
          "profile": [
            "http://hl7.org/fhir/us/vrdr/StructureDefinition/VRDR-Mortician"
          ]
        },
        "identifier": [
          {
            "system": "http://hl7.org/fhir/sid/us-npi",
            "value": "313333AB"
          }
        ],
        "name": [
          {
            "use": "official",
            "family": "Jimenez",
            "given": [
              "Pedro",
              "A"
            ]
          }
        ]
      }
    },
    {
      "fullUrl": "urn:uuid:571a764c-1c84-4bef-b84f-354c84d586f6",
      "resource": {
        "resourceType": "Procedure",
        "id": "571a764c-1c84-4bef-b84f-354c84d586f6",
        "meta": {
          "profile": [
            "http://hl7.org/fhir/us/vrdr/StructureDefinition/VRDR-Death-Certification"
          ]
        },
        "identifier": [
          {
            "value": "24"
          }
        ],
        "status": "completed",
        "category": {
          "coding": [
            {
              "system": "http://snomed.info/sct",
              "code": "103693007",
              "display": "Diagnostic procedure"
            }
          ]
        },
        "code": {
          "coding": [
            {
              "system": "http://snomed.info/sct",
              "code": "308646001",
              "display": "Death certification"
            }
          ]
        },
        "subject": {
          "reference": "urn:uuid:b167f170-63a2-41c8-a807-693f22c9d35e"
        },
        "performedDateTime": "2022-01-14",
        "performer": [
          {
            "function": {
              "coding": [
                {
                  "system": "http://snomed.info/sct",
                  "code": "434641000124105",
                  "display": "Death certification and verification by physician"
                }
              ]
            },
            "actor": {
              "reference": "urn:uuid:48296dac-6696-401e-96ee-868d9b859541"
            }
          }
        ]
      }
    },
    {
      "fullUrl": "urn:uuid:fbc307e1-9474-4ed9-b9be-3aeca9d3e6d6",
      "resource": {
        "resourceType": "Organization",
        "id": "fbc307e1-9474-4ed9-b9be-3aeca9d3e6d6",
        "meta": {
          "profile": [
            "http://hl7.org/fhir/us/vrdr/StructureDefinition/VRDR-Interested-Party"
          ]
        },
        "active": true
      }
    },
    {
      "fullUrl": "urn:uuid:124b7e26-563f-42aa-b4f6-ba3a9289ade3",
      "resource": {
        "resourceType": "Organization",
        "id": "124b7e26-563f-42aa-b4f6-ba3a9289ade3",
        "meta": {
          "profile": [
            "http://hl7.org/fhir/us/vrdr/StructureDefinition/VRDR-Funeral-Home"
          ]
        },
        "active": true,
        "type": [
          {
            "coding": [
              {
                "system": "http://terminology.hl7.org/CodeSystem/organization-type",
                "code": "bus",
                "display": "Non-Healthcare Business or Corporation"
              }
            ]
          }
        ],
        "name": "River Funeral Home",
        "address": [
          {
            "line": [
              "15 Furnace Drive"
            ],
            "city": "San Antonio",
            "state": "TX",
            "postalCode": "78201",
            "country": "US"
          }
        ]
      }
    },
    {
      "fullUrl": "urn:uuid:d0bdbdd1-f3a6-41bf-b693-53a8fc4994f0",
      "resource": {
        "resourceType": "PractitionerRole",
        "id": "d0bdbdd1-f3a6-41bf-b693-53a8fc4994f0",
        "meta": {
          "profile": [
            "http://hl7.org/fhir/us/vrdr/StructureDefinition/VRDR-Funeral-Service-Licensee"
          ]
        },
        "practitioner": {
          "reference": "urn:uuid:b9f4bf8b-35ee-4a0f-aeec-bea7870efdd5"
        },
        "organization": {
          "reference": "urn:uuid:124b7e26-563f-42aa-b4f6-ba3a9289ade3"
        }
      }
    },
    {
      "fullUrl": "urn:uuid:560a1daa-24a8-449a-bf91-adcd65400855",
      "resource": {
        "resourceType": "List",
        "id": "560a1daa-24a8-449a-bf91-adcd65400855",
        "meta": {
          "profile": [
            "http://hl7.org/fhir/us/vrdr/StructureDefinition/VRDR-Cause-of-Death-Pathway"
          ]
        },
        "status": "current",
        "mode": "snapshot",
        "source": {
          "reference": "urn:uuid:48296dac-6696-401e-96ee-868d9b859541"
        },
        "orderedBy": {
          "coding": [
            {
              "system": "http://terminology.hl7.org/CodeSystem/list-order",
              "code": "priority",
              "display": "Sorted by Priority"
            }
          ]
        },
        "entry": [
          {
            "item": {
              "reference": "urn:uuid:314778dd-1d6e-49cd-ac62-ef7b817ac0c9"
            }
          },
          {
            "item": {
              "reference": "urn:uuid:b6f548b1-2960-4a5f-a366-2ce55418ac96"
            }
          },
          {
            "item": {
              "reference": "urn:uuid:d1684602-d300-4828-a9d6-cec16e0c090e"
            }
          }
        ]
      }
    },
    {
      "fullUrl": "urn:uuid:2c2d3488-3c07-4341-8da5-8105cfa52646",
      "resource": {
        "resourceType": "Location",
        "id": "2c2d3488-3c07-4341-8da5-8105cfa52646",
        "meta": {
          "profile": [
            "http://hl7.org/fhir/us/vrdr/StructureDefinition/VRDR-Disposition-Location"
          ]
        },
        "name": "River Cemetary",
        "address": {
          "line": [
            "15 Furnace Drive"
          ],
          "city": "San Antonio",
          "state": "TX",
          "postalCode": "78201",
          "country": "US"
        },
        "physicalType": {
          "coding": [
            {
              "system": "http://terminology.hl7.org/CodeSystem/location-physical-type",
              "code": "si",
              "display": "Site"
            }
          ]
        }
      }
    },
    {
      "fullUrl": "urn:uuid:62250bc5-30ad-448e-b80c-f3075fb9ce2d",
      "resource": {
        "resourceType": "Observation",
        "id": "62250bc5-30ad-448e-b80c-f3075fb9ce2d",
        "meta": {
          "profile": [
            "http://hl7.org/fhir/us/vrdr/StructureDefinition/VRDR-Decedent-Age"
          ]
        },
        "status": "final",
        "code": {
          "coding": [
            {
              "system": "http://loinc.org",
              "code": "30525-0",
              "display": "Age"
            }
          ]
        },
        "subject": {
          "reference": "urn:uuid:b167f170-63a2-41c8-a807-693f22c9d35e"
        },
        "valueQuantity": {
          "value": 57,
          "unit": "a"
        }
      }
    },
    {
      "fullUrl": "urn:uuid:55e862dd-5f8e-4f6a-bfd8-d394a421eac8",
      "resource": {
        "resourceType": "Observation",
        "id": "55e862dd-5f8e-4f6a-bfd8-d394a421eac8",
        "meta": {
          "profile": [
            "http://hl7.org/fhir/us/vrdr/StructureDefinition/VRDR-BirthRecordIdentifier"
          ]
        },
        "status": "final",
        "code": {
          "coding": [
            {
              "system": "http://terminology.hl7.org/CodeSystem/v2-0203",
              "code": "BR",
              "display": "Birth registry number"
            }
          ]
        },
        "subject": {
          "reference": "urn:uuid:b167f170-63a2-41c8-a807-693f22c9d35e"
        },
        "valueString": "818181",
        "component": [
          {
            "code": {
              "coding": [
                {
                  "system": "http://loinc.org",
                  "code": "21842-0",
                  "display": "Birthplace"
                }
              ]
            },
            "valueCodeableConcept": {
              "coding": [
                {
                  "system": "urn:iso:std:iso:3166:-2",
                  "code": "US-TX",
                  "display": "US-TX"
                }
              ]
            }
          }
        ]
      }
    },
    {
      "fullUrl": "urn:uuid:3ec78ed7-55c6-4d2e-bb6a-b15f8d1a727f",
      "resource": {
        "resourceType": "RelatedPerson",
        "id": "3ec78ed7-55c6-4d2e-bb6a-b15f8d1a727f",
        "meta": {
          "profile": [
            "http://hl7.org/fhir/us/vrdr/StructureDefinition/VRDR-Decedent-Mother"
          ]
        },
        "patient": {
          "reference": "urn:uuid:b167f170-63a2-41c8-a807-693f22c9d35e"
        },
        "relationship": [
          {
            "coding": [
              {
                "system": "http://terminology.hl7.org/CodeSystem/v3-RoleCode",
                "code": "MTH",
                "display": "mother"
              }
            ]
          }
        ],
        "name": [
          {
            "family": "Jones",
            "given": [
              "Liliana"
            ]
          }
        ]
      }
    },
    {
      "fullUrl": "urn:uuid:1e185c1d-6f25-4834-84cf-5672219f67fe",
      "resource": {
        "resourceType": "RelatedPerson",
        "id": "1e185c1d-6f25-4834-84cf-5672219f67fe",
        "meta": {
          "profile": [
            "http://hl7.org/fhir/us/vrdr/StructureDefinition/VRDR-Decedent-Father"
          ]
        },
        "patient": {
          "reference": "urn:uuid:b167f170-63a2-41c8-a807-693f22c9d35e"
        },
        "relationship": [
          {
            "coding": [
              {
                "system": "http://terminology.hl7.org/CodeSystem/v3-RoleCode",
                "code": "FTH",
                "display": "father"
              }
            ]
          }
        ],
        "name": [
          {
            "family": "Perez"
          }
        ]
      }
    },
    {
      "fullUrl": "urn:uuid:fdf8fc17-efa2-444f-be2a-59beb9fddd9f",
      "resource": {
        "resourceType": "Observation",
        "id": "fdf8fc17-efa2-444f-be2a-59beb9fddd9f",
        "meta": {
          "profile": [
            "http://hl7.org/fhir/us/vrdr/StructureDefinition/VRDR-Decedent-Education-Level"
          ]
        },
        "status": "final",
        "code": {
          "coding": [
            {
              "system": "http://loinc.org",
              "code": "80913-7",
              "display": "Highest level of education [US Standard Certificate of Death]"
            }
          ]
        },
        "subject": {
          "reference": "urn:uuid:b167f170-63a2-41c8-a807-693f22c9d35e"
        },
        "valueCodeableConcept": {
          "coding": [
            {
              "system": "urn:oid:2.16.840.1.114222.4.5.274",
              "code": "PHC1454",
              "display": "Master's Degree"
            }
          ]
        }
      }
    },
    {
      "fullUrl": "urn:uuid:21027f3e-8620-4fd9-98dd-ae39c9c9463f",
      "resource": {
        "resourceType": "Observation",
        "id": "21027f3e-8620-4fd9-98dd-ae39c9c9463f",
        "meta": {
          "profile": [
            "http://hl7.org/fhir/us/vrdr/StructureDefinition/VRDR-Decedent-Usual-Work"
          ]
        },
        "status": "final",
        "code": {
          "coding": [
            {
              "system": "http://loinc.org",
              "code": "21843-8",
              "display": "History of Usual occupation"
            }
          ]
        },
        "subject": {
          "reference": "urn:uuid:b167f170-63a2-41c8-a807-693f22c9d35e"
        },
        "valueCodeableConcept": {
          "coding": [
            {
              "system": "urn:oid:2.16.840.1.114222.4.5.314",
              "code": "6230",
              "display": "carpenters"
            }
          ],
          "text": "carpenter"
        },
        "component": [
          {
            "code": {
              "coding": [
                {
                  "system": "http://loinc.org",
                  "code": "21844-6",
                  "display": "History of Usual industry"
                }
              ]
            },
            "valueCodeableConcept": {
              "coding": [
                {
                  "system": "urn:oid:2.16.840.1.114222.4.5.315",
                  "code": "0770",
                  "display": "Construction"
                }
              ],
              "text": "construction"
            }
          }
        ]
      }
    },
    {
      "fullUrl": "urn:uuid:7dd07999-0e60-4580-bbfd-1c7a5eec37b3",
      "resource": {
        "resourceType": "Observation",
        "id": "7dd07999-0e60-4580-bbfd-1c7a5eec37b3",
        "meta": {
          "profile": [
            "http://hl7.org/fhir/us/vrdr/StructureDefinition/VRDR-Death-Date"
          ]
        },
        "extension": [
          {
            "url": "http://hl7.org/fhir/us/vrdr/StructureDefinition/VRDR-Observation-Location",
            "valueReference": {
              "reference": "urn:uuid:4b5b6c34-b496-4a59-9754-e68a6ab462dd"
            }
          }
        ],
        "status": "final",
        "code": {
          "coding": [
            {
              "system": "http://loinc.org",
              "code": "81956-5",
              "display": "Date and time of death"
            }
          ]
        },
        "subject": {
          "reference": "urn:uuid:b167f170-63a2-41c8-a807-693f22c9d35e"
        },
        "effectiveDateTime": "2022-01-14T11:25:00",
        "performer": [
          {
            "reference": "urn:uuid:c775aca6-dc34-4356-9e66-314a34d5a2f4"
          }
        ],
        "valueDateTime": "2022-01-14T11:25:00",
        "component": [
          {
            "code": {
              "coding": [
                {
                  "system": "http://loinc.org",
                  "code": "80616-6",
                  "display": "Date and time pronounced dead [US Standard Certificate of Death]"
                }
              ]
            },
            "valueDateTime": "2022-01-14T11:35:00"
          }
        ]
      }
    },
    {
      "fullUrl": "urn:uuid:4b5b6c34-b496-4a59-9754-e68a6ab462dd",
      "resource": {
        "resourceType": "Location",
        "id": "4b5b6c34-b496-4a59-9754-e68a6ab462dd",
        "meta": {
          "profile": [
            "http://hl7.org/fhir/us/vrdr/StructureDefinition/VRDR-Death-Location"
          ]
        },
        "extension": [
          {
            "url": "http://hl7.org/fhir/us/vrdr/StructureDefinition/Location-Jurisdiction-Id",
            "valueCodeableConcept": {
              "coding": [
                {
                  "system": "urn:oid:2.16.840.1.113883.6.92",
                  "code": "25",
                  "display": "MA"
                }
              ],
              "text": "MA"
            }
          }
        ],
        "name": "County Hospital",
        "description": "Dead On Arrival",
        "type": [
          {
            "coding": [
              {
                "system": "http://snomed.info/sct",
                "code": "63238001",
                "display": "Hospital Dead on Arrival"
              }
            ]
          }
        ]
      }
    },
    {
      "fullUrl": "urn:uuid:314778dd-1d6e-49cd-ac62-ef7b817ac0c9",
      "resource": {
        "resourceType": "Condition",
        "id": "314778dd-1d6e-49cd-ac62-ef7b817ac0c9",
        "meta": {
          "profile": [
            "http://hl7.org/fhir/us/vrdr/StructureDefinition/VRDR-Cause-Of-Death-Condition"
          ]
        },
        "category": [
          {
            "coding": [
              {
                "system": "http://snomed.info/sct",
                "code": "16100001",
                "display": "Death Diagnosis"
              }
            ]
          }
        ],
        "code": {
          "text": "Blunt head trauma"
        },
        "subject": {
          "reference": "urn:uuid:b167f170-63a2-41c8-a807-693f22c9d35e"
        },
        "onsetString": "30 min",
        "asserter": {
          "reference": "urn:uuid:48296dac-6696-401e-96ee-868d9b859541"
        }
      }
    },
    {
      "fullUrl": "urn:uuid:b6f548b1-2960-4a5f-a366-2ce55418ac96",
      "resource": {
        "resourceType": "Condition",
        "id": "b6f548b1-2960-4a5f-a366-2ce55418ac96",
        "meta": {
          "profile": [
            "http://hl7.org/fhir/us/vrdr/StructureDefinition/VRDR-Cause-Of-Death-Condition"
          ]
        },
        "category": [
          {
            "coding": [
              {
                "system": "http://snomed.info/sct",
                "code": "16100001",
                "display": "Death Diagnosis"
              }
            ]
          }
        ],
        "code": {
          "text": "Automobile accident"
        },
        "subject": {
          "reference": "urn:uuid:b167f170-63a2-41c8-a807-693f22c9d35e"
        },
        "onsetString": "30 min",
        "asserter": {
          "reference": "urn:uuid:48296dac-6696-401e-96ee-868d9b859541"
        }
      }
    },
    {
      "fullUrl": "urn:uuid:03b48eab-044f-4a97-9081-ef9981f4251e",
      "resource": {
        "resourceType": "Observation",
        "id": "03b48eab-044f-4a97-9081-ef9981f4251e",
        "meta": {
          "profile": [
            "http://hl7.org/fhir/us/vrdr/StructureDefinition/VRDR-Examiner-Contacted"
          ]
        },
        "status": "final",
        "code": {
          "coding": [
            {
              "system": "http://loinc.org",
              "code": "74497-9",
              "display": "Medical examiner or coroner was contacted [US Standard Certificate of Death]"
            }
          ]
        },
        "subject": {
          "reference": "urn:uuid:b167f170-63a2-41c8-a807-693f22c9d35e"
        },
        "valueCodeableConcept": {
          "coding": [
            {
              "system": "urn:oid:2.16.840.1.113883.12.136",
              "code": "Y",
              "display": "Yes"
            }
          ]
        }
      }
    },
    {
      "fullUrl": "urn:uuid:d1684602-d300-4828-a9d6-cec16e0c090e",
      "resource": {
        "resourceType": "Condition",
        "id": "d1684602-d300-4828-a9d6-cec16e0c090e",
        "meta": {
          "profile": [
            "http://hl7.org/fhir/us/vrdr/StructureDefinition/VRDR-Cause-Of-Death-Condition"
          ]
        },
        "category": [
          {
            "coding": [
              {
                "system": "http://snomed.info/sct",
                "code": "16100001",
                "display": "Death Diagnosis"
              }
            ]
          }
        ],
        "code": {
          "text": "Epilepsy"
        },
        "subject": {
          "reference": "urn:uuid:b167f170-63a2-41c8-a807-693f22c9d35e"
        },
        "onsetString": "20 years",
        "asserter": {
          "reference": "urn:uuid:48296dac-6696-401e-96ee-868d9b859541"
        }
      }
    },
    {
      "fullUrl": "urn:uuid:f65a4027-b6b0-455b-a03e-3af747ecdbbf",
      "resource": {
        "resourceType": "Location",
        "id": "f65a4027-b6b0-455b-a03e-3af747ecdbbf",
        "meta": {
          "profile": [
            "http://hl7.org/fhir/us/vrdr/StructureDefinition/VRDR-Injury-Location"
          ]
        },
        "description": "15 Industrial Drive 19901 US"
      }
    },
    {
      "fullUrl": "urn:uuid:f8c0cff7-3bf2-411f-8c20-532b68bc2d80",
      "resource": {
        "resourceType": "Observation",
        "id": "f8c0cff7-3bf2-411f-8c20-532b68bc2d80",
        "meta": {
          "profile": [
            "http://hl7.org/fhir/us/vrdr/StructureDefinition/VRDR-Manner-of-Death"
          ]
        },
        "status": "final",
        "code": {
          "coding": [
            {
              "system": "http://loinc.org",
              "code": "69449-7",
              "display": "Manner of death"
            }
          ]
        },
        "subject": {
          "reference": "urn:uuid:b167f170-63a2-41c8-a807-693f22c9d35e"
        },
        "performer": [
          {
            "reference": "urn:uuid:48296dac-6696-401e-96ee-868d9b859541"
          }
        ],
        "valueCodeableConcept": {
          "coding": [
            {
              "system": "http://snomed.info/sct",
              "code": "7878000",
              "display": "Accidental death"
            }
          ]
        }
      }
    },
    {
      "fullUrl": "urn:uuid:a80c8006-cfb1-4f2c-abe4-371a311be09a",
      "resource": {
        "resourceType": "Observation",
        "id": "a80c8006-cfb1-4f2c-abe4-371a311be09a",
        "meta": {
          "profile": [
            "http://hl7.org/fhir/us/vrdr/StructureDefinition/VRDR-InjuryIncident"
          ]
        },
        "extension": [
          {
            "url": "http://hl7.org/fhir/us/vrdr/StructureDefinition/VRDR-Observation-Location",
            "valueReference": {
              "reference": "urn:uuid:f65a4027-b6b0-455b-a03e-3af747ecdbbf"
            }
          }
        ],
        "status": "final",
        "code": {
          "coding": [
            {
              "system": "http://loinc.org",
              "code": "11374-6",
              "display": "Injury incident description Narrative"
            }
          ]
        },
        "subject": {
          "reference": "urn:uuid:b167f170-63a2-41c8-a807-693f22c9d35e"
        },
        "effectiveDateTime": "2022-01-14T11:15:00",
        "valueString": "unrestrained ejected driver in rollover motor vehicle accident",
        "component": [
          {
            "code": {
              "coding": [
                {
                  "system": "http://loinc.org",
                  "code": "69444-8",
                  "display": "Did death result from injury at work"
                }
              ]
            },
            "valueCodeableConcept": {
              "coding": [
                {
                  "system": "urn:oid:2.16.840.1.113883.12.136",
                  "code": "Y",
                  "display": "Yes"
                }
              ]
            }
          },
          {
            "code": {
              "coding": [
                {
                  "system": "http://loinc.org",
                  "code": "69450-5",
                  "display": "Place of injury Facility"
                }
              ]
            },
            "valueCodeableConcept": {
              "coding": [
                {
                  "system": "urn:oid:2.16.840.1.114222.4.5.320",
                  "code": "4",
                  "display": "street"
                }
              ]
            }
          },
          {
            "code": {
              "coding": [
                {
                  "system": "http://loinc.org",
                  "code": "69448-9",
                  "display": "Injury leading to death associated with transportation event"
                }
              ]
            },
            "valueCodeableConcept": {
              "coding": [
                {
                  "system": "urn:oid:2.16.840.1.113883.12.136",
                  "code": "Y",
                  "display": "Yes"
                }
              ]
            }
          }
        ]
      }
    },
    {
      "fullUrl": "urn:uuid:04df05cf-5f04-448b-a7a5-f2f290abcb09",
      "resource": {
        "resourceType": "Observation",
        "id": "04df05cf-5f04-448b-a7a5-f2f290abcb09",
        "meta": {
          "profile": [
            "http://hl7.org/fhir/us/vrdr/StructureDefinition/VRDR-Decedent-Transportation-Role"
          ]
        },
        "status": "final",
        "code": {
          "coding": [
            {
              "system": "http://loinc.org",
              "code": "69451-3",
              "display": "Transportation role of decedent"
            }
          ]
        },
        "subject": {
          "reference": "urn:uuid:b167f170-63a2-41c8-a807-693f22c9d35e"
        },
        "valueCodeableConcept": {
          "coding": [
            {
              "system": "http://snomed.info/sct",
              "code": "236320001",
              "display": "Vehicle driver"
            }
          ]
        }
      }
    },
    {
      "fullUrl": "urn:uuid:37423dc9-f772-4012-b249-891a789e88b4",
      "resource": {
        "resourceType": "Observation",
        "id": "37423dc9-f772-4012-b249-891a789e88b4",
        "meta": {
          "profile": [
            "http://hl7.org/fhir/us/vrdr/StructureDefinition/VRDR-Autopsy-Performed-Indicator"
          ]
        },
        "status": "final",
        "code": {
          "coding": [
            {
              "system": "http://loinc.org",
              "code": "85699-7",
              "display": "Autopsy was performed"
            }
          ]
        },
        "subject": {
          "reference": "urn:uuid:b167f170-63a2-41c8-a807-693f22c9d35e"
        },
        "valueCodeableConcept": {
          "coding": [
            {
              "system": "urn:oid:2.16.840.1.113883.12.136",
              "code": "N",
              "display": "No"
            }
          ]
        },
        "component": [
          {
            "code": {
              "coding": [
                {
                  "system": "http://loinc.org",
                  "code": "69436-4",
                  "display": "Autopsy results available"
                }
              ]
            },
            "valueCodeableConcept": {
              "coding": [
                {
                  "system": "urn:oid:2.16.840.1.113883.12.136",
                  "code": "N",
                  "display": "No"
                }
              ]
            }
          }
        ]
      }
    },
    {
      "fullUrl": "urn:uuid:18af41c9-0228-419f-9b30-67fca7fb42a5",
      "resource": {
        "resourceType": "Observation",
        "id": "18af41c9-0228-419f-9b30-67fca7fb42a5",
        "meta": {
          "profile": [
            "http://hl7.org/fhir/us/vrdr/StructureDefinition/VRDR-Decedent-Disposition-Method"
          ]
        },
        "extension": [
          {
            "url": "http://hl7.org/fhir/us/vrdr/StructureDefinition/VRDR-Observation-Location",
            "valueReference": {
              "reference": "urn:uuid:2c2d3488-3c07-4341-8da5-8105cfa52646"
            }
          }
        ],
        "status": "final",
        "code": {
          "coding": [
            {
              "system": "http://loinc.org",
              "code": "80905-3",
              "display": "Body disposition method"
            }
          ]
        },
        "subject": {
          "reference": "urn:uuid:b167f170-63a2-41c8-a807-693f22c9d35e"
        },
        "performer": [
          {
            "reference": "urn:uuid:b9f4bf8b-35ee-4a0f-aeec-bea7870efdd5"
          }
        ],
        "valueCodeableConcept": {
          "coding": [
            {
              "system": "http://snomed.info/sct",
              "code": "449941000124103",
              "display": "Patient status determination, deceased and removed from state"
            }
          ]
        }
      }
    },
    {
      "fullUrl": "urn:uuid:e4d7dc48-b739-4f3d-8e05-1dbb8a203f93",
      "resource": {
        "resourceType": "Observation",
        "id": "e4d7dc48-b739-4f3d-8e05-1dbb8a203f93",
        "meta": {
          "profile": [
            "http://hl7.org/fhir/us/vrdr/StructureDefinition/VRDR-Decedent-Pregnancy"
          ]
        },
        "status": "final",
        "code": {
          "coding": [
            {
              "system": "http://loinc.org",
              "code": "69442-2",
              "display": "Timing of recent pregnancy in relation to death"
            }
          ]
        },
        "subject": {
          "reference": "urn:uuid:b167f170-63a2-41c8-a807-693f22c9d35e"
        },
        "valueCodeableConcept": {
          "coding": [
            {
              "system": "http://terminology.hl7.org/CodeSystem/v3-NullFlavor",
              "code": "NA",
              "display": "not applicable"
            }
          ]
        }
      }
    },
    {
      "fullUrl": "urn:uuid:ae913e8b-656e-400e-b0d5-54f016b70ba6",
      "resource": {
        "resourceType": "Observation",
        "id": "ae913e8b-656e-400e-b0d5-54f016b70ba6",
        "meta": {
          "profile": [
            "http://hl7.org/fhir/us/vrdr/StructureDefinition/VRDR-Tobacco-Use-Contributed-To-Death"
          ]
        },
        "status": "final",
        "code": {
          "coding": [
            {
              "system": "http://loinc.org",
              "code": "69443-0",
              "display": "Did tobacco use contribute to death"
            }
          ]
        },
        "subject": {
          "reference": "urn:uuid:b167f170-63a2-41c8-a807-693f22c9d35e"
        },
        "valueCodeableConcept": {
          "coding": [
            {
              "system": "http://snomed.info/sct",
              "code": "373067005",
              "display": "No"
            }
          ]
        }
      }
    },
    {
      "fullUrl": "urn:uuid:f25f8e45-6ca4-4ed6-9ab1-f894ce3418ab",
      "resource": {
        "resourceType": "Observation",
        "id": "f25f8e45-6ca4-4ed6-9ab1-f894ce3418ab",
        "meta": {
          "profile": [
            "http://hl7.org/fhir/us/vrdr/StructureDefinition/VRDR-Decedent-Military-Service"
          ]
        },
        "status": "final",
        "code": {
          "coding": [
            {
              "system": "http://loinc.org",
              "code": "55280-2",
              "display": "Military service Narrative"
            }
          ]
        },
        "subject": {
          "reference": "urn:uuid:b167f170-63a2-41c8-a807-693f22c9d35e"
        },
        "valueCodeableConcept": {
          "coding": [
            {
              "system": "urn:oid:2.16.840.1.113883.12.136",
              "code": "N",
              "display": "No"
            }
          ]
        }
      }
    }
  ]
}
