{
  "resourceType": "Bundle",
  "id": "55615619-a0d8-4137-ac48-647cd4dc6c7f",
  "meta": {
    "profile": [
      "http://hl7.org/fhir/us/vrdr/StructureDefinition/VRDR-Death-Certificate-Document"
    ]
  },
  "identifier": {
    "system": "http://nchs.cdc.gov/vrdr_id",
    "value": "2022MA000022"
  },
  "type": "document",
  "timestamp": "2022-01-25T13:20:23.128097-05:00",
  "entry": [
    {
      "fullUrl": "urn:uuid:79e87de6-1bab-475c-b6af-d7a3ead8462d",
      "resource": {
        "resourceType": "Composition",
        "id": "79e87de6-1bab-475c-b6af-d7a3ead8462d",
        "meta": {
          "profile": [
            "http://hl7.org/fhir/us/vrdr/StructureDefinition/VRDR-Death-Certificate"
          ]
        },
        "status": "final",
        "type": {
          "coding": [
            {
              "system": "http://loinc.org",
              "code": "64297-5",
              "display": "Death certificate"
            }
          ]
        },
        "subject": {
          "reference": "urn:uuid:92737e6e-24ba-4f2f-880f-7b48c84769b9"
        },
        "date": "2022-01-11",
        "author": [
          {
            "reference": "urn:uuid:b924de7f-aa28-45fc-a54c-f9c8216e3f89"
          }
        ],
        "title": "Death Certificate",
        "attester": [
          {
            "mode": "legal",
            "time": "2022-01-05",
            "party": {
              "reference": "urn:uuid:b924de7f-aa28-45fc-a54c-f9c8216e3f89"
            }
          }
        ],
        "event": [
          {
            "code": [
              {
                "coding": [
                  {
                    "system": "http://snomed.info/sct",
                    "code": "103693007",
                    "display": "Diagnostic procedure (procedure)"
                  }
                ]
              }
            ],
            "detail": [
              {
                "reference": "urn:uuid:6dd598bb-c195-4e8a-9435-87026ab5e6e1"
              }
            ]
          }
        ],
        "section": [
          {
            "entry": [
              {
                "reference": "urn:uuid:92737e6e-24ba-4f2f-880f-7b48c84769b9"
              },
              {
                "reference": "urn:uuid:b924de7f-aa28-45fc-a54c-f9c8216e3f89"
              },
              {
                "reference": "urn:uuid:2b934c46-2e90-4ff6-bcb5-285597ce0b0f"
              },
              {
                "reference": "urn:uuid:d57a1405-74fe-4f5b-b178-f5101346db14"
              },
              {
                "reference": "urn:uuid:6dd598bb-c195-4e8a-9435-87026ab5e6e1"
              },
              {
                "reference": "urn:uuid:e2715dd2-2329-4403-ae1b-52872e65c6a2"
              },
              {
                "reference": "urn:uuid:92fbbd91-22e4-4f7f-b219-81be133e74a9"
              },
              {
                "reference": "urn:uuid:869d89c9-278e-4537-ac9f-9eae76efc653"
              },
              {
                "reference": "urn:uuid:4bceabce-ca60-4951-8dee-3d5b3fec17a8"
              },
              {
                "reference": "urn:uuid:6c55e4ef-8578-45f4-a317-8ea226b2a093"
              },
              {
                "reference": "urn:uuid:29f185ab-f97a-4e11-9095-e4e4b1bd11b4"
              },
              {
                "reference": "urn:uuid:073b24ee-8231-4067-8cb4-18ba10fd96be"
              },
              {
                "reference": "urn:uuid:31ea01ff-071f-4f44-bf49-71d6acf8a2b4"
              },
              {
                "reference": "urn:uuid:12eaeb03-50e1-450f-923d-59d215a9cfbc"
              },
              {
                "reference": "urn:uuid:6b988831-f144-401d-a500-d06bcded88f7"
              },
              {
                "reference": "urn:uuid:4530607a-dae6-434b-b2b5-3f8124b8d686"
              },
              {
                "reference": "urn:uuid:b76b7d57-2627-44f0-b093-03537f388bb6"
              },
              {
                "reference": "urn:uuid:8a39f31f-e6cb-449f-9126-8744d7e750fa"
              },
              {
                "reference": "urn:uuid:846db526-81e3-439b-9a8b-b04cf614af08"
              },
              {
                "reference": "urn:uuid:6805ab1d-6313-455d-846e-03f6289aa67c"
              },
              {
                "reference": "urn:uuid:e0ac48a5-6e75-42b7-ba26-068676c4c34a"
              },
              {
                "reference": "urn:uuid:f45b886e-b106-4e58-a489-62996538a60d"
              },
              {
                "reference": "urn:uuid:176b6acb-e496-44db-8a02-5daa180de06a"
              },
              {
                "reference": "urn:uuid:f48faa30-233d-42a9-9244-2392ac02ffbb"
              },
              {
                "reference": "urn:uuid:175e47ab-f202-4245-9cc5-5e068439f288"
              },
              {
                "reference": "urn:uuid:3f84b23c-b424-4b09-a248-215a8243de55"
              },
              {
                "reference": "urn:uuid:0de84fd8-770b-4aaa-be45-2b241cc637ec"
              },
              {
                "reference": "urn:uuid:fbaed2f5-4def-4614-8089-7d740a1fa67f"
              },
              {
                "reference": "urn:uuid:776501ba-302e-4d9e-986f-83eab7d59de7"
              }
            ]
          }
        ]
      }
    },
    {
      "fullUrl": "urn:uuid:92737e6e-24ba-4f2f-880f-7b48c84769b9",
      "resource": {
        "resourceType": "Patient",
        "id": "92737e6e-24ba-4f2f-880f-7b48c84769b9",
        "meta": {
          "profile": [
            "http://hl7.org/fhir/us/vrdr/StructureDefinition/VRDR-Decedent"
          ]
        },
        "extension": [
          {
            "extension": [
              {
                "url": "detailed",
                "valueCoding": {
                  "system": "urn:oid:2.16.840.1.113883.6.238",
                  "code": "2029-7",
                  "display": "Asian Indian"
                }
              },
              {
                "url": "text",
                "valueString": "Asian Indian"
              }
            ],
            "url": "http://hl7.org/fhir/us/core/StructureDefinition/us-core-race"
          },
          {
            "extension": [
              {
                "url": "ombCategory",
                "valueCoding": {
                  "system": "urn:oid:2.16.840.1.113883.6.238",
                  "code": "2186-5",
                  "display": "Not Hispanic or Latino"
                }
              },
              {
                "url": "text",
                "valueString": "Not Hispanic or Latino"
              }
            ],
            "url": "http://hl7.org/fhir/us/core/StructureDefinition/us-core-ethnicity"
          },
          {
            "url": "http://hl7.org/fhir/us/core/StructureDefinition/us-core-birthsex",
            "valueCode": "F"
          },
          {
            "url": "http://hl7.org/fhir/StructureDefinition/patient-birthPlace",
            "valueAddress": {
              "city": "Roanoke",
              "state": "VA",
              "country": "US"
            }
          }
        ],
        "identifier": [
          {
            "type": {
              "coding": [
                {
                  "system": "http://terminology.hl7.org/CodeSystem/v2-0203",
                  "code": "SB",
                  "display": "Social Beneficiary Identifier"
                }
              ]
            },
            "system": "http://hl7.org/fhir/sid/us-ssn",
            "value": "187654321"
          }
        ],
        "name": [
          {
            "use": "official",
            "family": "Patel",
            "given": [
              "Madelyn"
            ]
          }
        ],
        "birthDate": "1978-03-12",
        "address": [
          {
            "extension": [
              {
                "url": "http://hl7.org/fhir/us/vrdr/StructureDefinition/Within-City-Limits-Indicator",
                "valueCoding": {
                  "system": "http://terminology.hl7.org/CodeSystem/v3-NullFlavor",
                  "code": "NA",
                  "display": "not applicable"
                }
              }
            ],
            "line": [
              "5590 Lockwood Drive"
            ],
            "city": "Danville",
            "state": "NS",
            "country": "CA"
          }
        ],
        "maritalStatus": {
          "coding": [
            {
              "system": "http://terminology.hl7.org/CodeSystem/v3-MaritalStatus",
              "code": "S",
              "display": "Never Married"
            }
          ]
        }
      }
    },
    {
      "fullUrl": "urn:uuid:b924de7f-aa28-45fc-a54c-f9c8216e3f89",
      "resource": {
        "resourceType": "Practitioner",
        "id": "b924de7f-aa28-45fc-a54c-f9c8216e3f89",
        "meta": {
          "profile": [
            "http://hl7.org/fhir/us/vrdr/StructureDefinition/VRDR-Certifier"
          ]
        },
        "name": [
          {
            "use": "official",
            "family": "Green",
            "given": [
              "Constance"
            ]
          }
        ],
        "address": [
          {
            "line": [
              "123 12th St."
            ],
            "city": "Danville",
            "state": "VA",
            "country": "US"
          }
        ]
      }
    },
    {
      "fullUrl": "urn:uuid:2b934c46-2e90-4ff6-bcb5-285597ce0b0f",
      "resource": {
        "resourceType": "Practitioner",
        "id": "2b934c46-2e90-4ff6-bcb5-285597ce0b0f",
        "meta": {
          "profile": [
            "http://hl7.org/fhir/us/vrdr/StructureDefinition/VRDR-Death-Pronouncement-Performer"
          ]
        },
        "name": [
          {
            "use": "official",
            "family": "Revel",
            "given": [
              "Adam"
            ]
          }
        ]
      }
    },
    {
      "fullUrl": "urn:uuid:d57a1405-74fe-4f5b-b178-f5101346db14",
      "resource": {
        "resourceType": "Practitioner",
        "id": "d57a1405-74fe-4f5b-b178-f5101346db14",
        "meta": {
          "profile": [
            "http://hl7.org/fhir/us/vrdr/StructureDefinition/VRDR-Mortician"
          ]
        },
        "identifier": [
          {
            "system": "http://hl7.org/fhir/sid/us-npi",
            "value": "212222AB"
          }
        ],
        "name": [
          {
            "use": "official",
            "family": "Smith",
            "given": [
              "Ronald",
              "Q"
            ]
          }
        ]
      }
    },
    {
      "fullUrl": "urn:uuid:6dd598bb-c195-4e8a-9435-87026ab5e6e1",
      "resource": {
        "resourceType": "Procedure",
        "id": "6dd598bb-c195-4e8a-9435-87026ab5e6e1",
        "meta": {
          "profile": [
            "http://hl7.org/fhir/us/vrdr/StructureDefinition/VRDR-Death-Certification"
          ]
        },
        "identifier": [
          {
            "value": "22"
          }
        ],
        "status": "completed",
        "category": {
          "coding": [
            {
              "system": "http://snomed.info/sct",
              "code": "103693007",
              "display": "Diagnostic procedure"
            }
          ]
        },
        "code": {
          "coding": [
            {
              "system": "http://snomed.info/sct",
              "code": "308646001",
              "display": "Death certification"
            }
          ]
        },
        "subject": {
          "reference": "urn:uuid:92737e6e-24ba-4f2f-880f-7b48c84769b9"
        },
        "performedDateTime": "2022-01-05",
        "performer": [
          {
            "function": {
              "coding": [
                {
                  "system": "http://snomed.info/sct",
                  "code": "440051000124108",
                  "display": "Medical Examiner"
                }
              ]
            },
            "actor": {
              "reference": "urn:uuid:b924de7f-aa28-45fc-a54c-f9c8216e3f89"
            }
          }
        ]
      }
    },
    {
      "fullUrl": "urn:uuid:e2715dd2-2329-4403-ae1b-52872e65c6a2",
      "resource": {
        "resourceType": "Organization",
        "id": "e2715dd2-2329-4403-ae1b-52872e65c6a2",
        "meta": {
          "profile": [
            "http://hl7.org/fhir/us/vrdr/StructureDefinition/VRDR-Interested-Party"
          ]
        },
        "active": true
      }
    },
    {
      "fullUrl": "urn:uuid:92fbbd91-22e4-4f7f-b219-81be133e74a9",
      "resource": {
        "resourceType": "Organization",
        "id": "92fbbd91-22e4-4f7f-b219-81be133e74a9",
        "meta": {
          "profile": [
            "http://hl7.org/fhir/us/vrdr/StructureDefinition/VRDR-Funeral-Home"
          ]
        },
        "active": true,
        "type": [
          {
            "coding": [
              {
                "system": "http://terminology.hl7.org/CodeSystem/organization-type",
                "code": "bus",
                "display": "Non-Healthcare Business or Corporation"
              }
            ]
          }
        ],
        "name": "Rosewood Funeral Home",
        "address": [
          {
            "line": [
              "Lilly Lane"
            ],
            "city": "Danville",
            "state": "VA",
            "postalCode": "24541",
            "country": "US"
          }
        ]
      }
    },
    {
      "fullUrl": "urn:uuid:869d89c9-278e-4537-ac9f-9eae76efc653",
      "resource": {
        "resourceType": "PractitionerRole",
        "id": "869d89c9-278e-4537-ac9f-9eae76efc653",
        "meta": {
          "profile": [
            "http://hl7.org/fhir/us/vrdr/StructureDefinition/VRDR-Funeral-Service-Licensee"
          ]
        },
        "practitioner": {
          "reference": "urn:uuid:d57a1405-74fe-4f5b-b178-f5101346db14"
        },
        "organization": {
          "reference": "urn:uuid:92fbbd91-22e4-4f7f-b219-81be133e74a9"
        }
      }
    },
    {
      "fullUrl": "urn:uuid:4bceabce-ca60-4951-8dee-3d5b3fec17a8",
      "resource": {
        "resourceType": "List",
        "id": "4bceabce-ca60-4951-8dee-3d5b3fec17a8",
        "meta": {
          "profile": [
            "http://hl7.org/fhir/us/vrdr/StructureDefinition/VRDR-Cause-of-Death-Pathway"
          ]
        },
        "status": "current",
        "mode": "snapshot",
        "source": {
          "reference": "urn:uuid:b924de7f-aa28-45fc-a54c-f9c8216e3f89"
        },
        "orderedBy": {
          "coding": [
            {
              "system": "http://terminology.hl7.org/CodeSystem/list-order",
              "code": "priority",
              "display": "Sorted by Priority"
            }
          ]
        },
        "entry": [
          {
            "item": {
              "reference": "urn:uuid:846db526-81e3-439b-9a8b-b04cf614af08"
            }
          }
        ]
      }
    },
    {
      "fullUrl": "urn:uuid:6c55e4ef-8578-45f4-a317-8ea226b2a093",
      "resource": {
        "resourceType": "Location",
        "id": "6c55e4ef-8578-45f4-a317-8ea226b2a093",
        "meta": {
          "profile": [
            "http://hl7.org/fhir/us/vrdr/StructureDefinition/VRDR-Disposition-Location"
          ]
        },
        "name": "Rosewood Cemetary",
        "address": {
          "line": [
            "303 Rosewood Ave"
          ],
          "city": "Danville",
          "state": "VA",
          "postalCode": "24541",
          "country": "US"
        },
        "physicalType": {
          "coding": [
            {
              "system": "http://terminology.hl7.org/CodeSystem/location-physical-type",
              "code": "si",
              "display": "Site"
            }
          ]
        }
      }
    },
    {
      "fullUrl": "urn:uuid:29f185ab-f97a-4e11-9095-e4e4b1bd11b4",
      "resource": {
        "resourceType": "Observation",
        "id": "29f185ab-f97a-4e11-9095-e4e4b1bd11b4",
        "meta": {
          "profile": [
            "http://hl7.org/fhir/us/vrdr/StructureDefinition/VRDR-Decedent-Age"
          ]
        },
        "status": "final",
        "code": {
          "coding": [
            {
              "system": "http://loinc.org",
              "code": "30525-0",
              "display": "Age"
            }
          ]
        },
        "subject": {
          "reference": "urn:uuid:92737e6e-24ba-4f2f-880f-7b48c84769b9"
        },
        "valueQuantity": {
          "value": 43,
          "unit": "a"
        }
      }
    },
    {
      "fullUrl": "urn:uuid:073b24ee-8231-4067-8cb4-18ba10fd96be",
      "resource": {
        "resourceType": "Observation",
        "id": "073b24ee-8231-4067-8cb4-18ba10fd96be",
        "meta": {
          "profile": [
            "http://hl7.org/fhir/us/vrdr/StructureDefinition/VRDR-BirthRecordIdentifier"
          ]
        },
        "status": "final",
        "code": {
          "coding": [
            {
              "system": "http://terminology.hl7.org/CodeSystem/v2-0203",
              "code": "BR",
              "display": "Birth registry number"
            }
          ]
        },
        "subject": {
          "reference": "urn:uuid:92737e6e-24ba-4f2f-880f-7b48c84769b9"
        },
        "valueString": "616161",
        "component": [
          {
            "code": {
              "coding": [
                {
                  "system": "http://loinc.org",
                  "code": "21842-0",
                  "display": "Birthplace"
                }
              ]
            },
            "valueCodeableConcept": {
              "coding": [
                {
                  "system": "urn:iso:std:iso:3166:-2",
                  "code": "US-VA",
                  "display": "US-VA"
                }
              ]
            }
          }
        ]
      }
    },
    {
      "fullUrl": "urn:uuid:31ea01ff-071f-4f44-bf49-71d6acf8a2b4",
      "resource": {
        "resourceType": "RelatedPerson",
        "id": "31ea01ff-071f-4f44-bf49-71d6acf8a2b4",
        "meta": {
          "profile": [
            "http://hl7.org/fhir/us/vrdr/StructureDefinition/VRDR-Decedent-Mother"
          ]
        },
        "patient": {
          "reference": "urn:uuid:92737e6e-24ba-4f2f-880f-7b48c84769b9"
        },
        "relationship": [
          {
            "coding": [
              {
                "system": "http://terminology.hl7.org/CodeSystem/v3-RoleCode",
                "code": "MTH",
                "display": "mother"
              }
            ]
          }
        ],
        "name": [
          {
            "family": "May",
            "given": [
              "Jennifer"
            ]
          }
        ]
      }
    },
    {
      "fullUrl": "urn:uuid:12eaeb03-50e1-450f-923d-59d215a9cfbc",
      "resource": {
        "resourceType": "RelatedPerson",
        "id": "12eaeb03-50e1-450f-923d-59d215a9cfbc",
        "meta": {
          "profile": [
            "http://hl7.org/fhir/us/vrdr/StructureDefinition/VRDR-Decedent-Father"
          ]
        },
        "patient": {
          "reference": "urn:uuid:92737e6e-24ba-4f2f-880f-7b48c84769b9"
        },
        "relationship": [
          {
            "coding": [
              {
                "system": "http://terminology.hl7.org/CodeSystem/v3-RoleCode",
                "code": "FTH",
                "display": "father"
              }
            ]
          }
        ],
        "name": [
          {
            "family": "Patel"
          }
        ]
      }
    },
    {
      "fullUrl": "urn:uuid:6b988831-f144-401d-a500-d06bcded88f7",
      "resource": {
        "resourceType": "Observation",
        "id": "6b988831-f144-401d-a500-d06bcded88f7",
        "meta": {
          "profile": [
            "http://hl7.org/fhir/us/vrdr/StructureDefinition/VRDR-Decedent-Education-Level"
          ]
        },
        "status": "final",
        "code": {
          "coding": [
            {
              "system": "http://loinc.org",
              "code": "80913-7",
              "display": "Highest level of education [US Standard Certificate of Death]"
            }
          ]
        },
        "subject": {
          "reference": "urn:uuid:92737e6e-24ba-4f2f-880f-7b48c84769b9"
        },
        "valueCodeableConcept": {
          "coding": [
            {
              "system": "urn:oid:2.16.840.1.114222.4.5.274",
              "code": "PHC1452",
              "display": "Associate Degree"
            }
          ]
        }
      }
    },
    {
      "fullUrl": "urn:uuid:4530607a-dae6-434b-b2b5-3f8124b8d686",
      "resource": {
        "resourceType": "Observation",
        "id": "4530607a-dae6-434b-b2b5-3f8124b8d686",
        "meta": {
          "profile": [
            "http://hl7.org/fhir/us/vrdr/StructureDefinition/VRDR-Decedent-Usual-Work"
          ]
        },
        "status": "final",
        "code": {
          "coding": [
            {
              "system": "http://loinc.org",
              "code": "21843-8",
              "display": "History of Usual occupation"
            }
          ]
        },
        "subject": {
          "reference": "urn:uuid:92737e6e-24ba-4f2f-880f-7b48c84769b9"
        },
        "valueCodeableConcept": {
          "coding": [
            {
              "system": "urn:oid:2.16.840.1.114222.4.5.314",
              "code": "4030",
              "display": "Food preparation workers"
            }
          ],
          "text": "Food Prep"
        },
        "component": [
          {
            "code": {
              "coding": [
                {
                  "system": "http://loinc.org",
                  "code": "21844-6",
                  "display": "History of Usual industry"
                }
              ]
            },
            "valueCodeableConcept": {
              "coding": [
                {
                  "system": "urn:oid:2.16.840.1.114222.4.5.315",
                  "code": "8680",
                  "display": "Restaurants and other food services"
                }
              ],
              "text": "Fast food"
            }
          }
        ]
      }
    },
    {
      "fullUrl": "urn:uuid:b76b7d57-2627-44f0-b093-03537f388bb6",
      "resource": {
        "resourceType": "Observation",
        "id": "b76b7d57-2627-44f0-b093-03537f388bb6",
        "meta": {
          "profile": [
            "http://hl7.org/fhir/us/vrdr/StructureDefinition/VRDR-Death-Date"
          ]
        },
        "extension": [
          {
            "url": "http://hl7.org/fhir/us/vrdr/StructureDefinition/VRDR-Observation-Location",
            "valueReference": {
              "reference": "urn:uuid:8a39f31f-e6cb-449f-9126-8744d7e750fa"
            }
          }
        ],
        "status": "final",
        "code": {
          "coding": [
            {
              "system": "http://loinc.org",
              "code": "81956-5",
              "display": "Date and time of death"
            }
          ]
        },
        "subject": {
          "reference": "urn:uuid:92737e6e-24ba-4f2f-880f-7b48c84769b9"
        },
        "effectiveDateTime": "2022-01-05T14:04:00",
        "performer": [
          {
            "reference": "urn:uuid:2b934c46-2e90-4ff6-bcb5-285597ce0b0f"
          }
        ],
        "valueDateTime": "2022-01-05T14:04:00",
        "component": [
          {
            "code": {
              "coding": [
                {
                  "system": "http://loinc.org",
                  "code": "80616-6",
                  "display": "Date and time pronounced dead [US Standard Certificate of Death]"
                }
              ]
            },
            "valueDateTime": "2022-01-05T15:30:00"
          }
        ]
      }
    },
    {
      "fullUrl": "urn:uuid:8a39f31f-e6cb-449f-9126-8744d7e750fa",
      "resource": {
        "resourceType": "Location",
        "id": "8a39f31f-e6cb-449f-9126-8744d7e750fa",
        "meta": {
          "profile": [
            "http://hl7.org/fhir/us/vrdr/StructureDefinition/VRDR-Death-Location"
          ]
        },
        "extension": [
          {
            "url": "http://hl7.org/fhir/us/vrdr/StructureDefinition/Location-Jurisdiction-Id",
            "valueCodeableConcept": {
              "coding": [
                {
                  "system": "urn:oid:2.16.840.1.113883.6.92",
                  "code": "25",
                  "display": "MA"
                }
              ],
              "text": "MA"
            }
          }
        ],
        "name": "home",
        "description": "home",
        "type": [
          {
            "coding": [
              {
                "system": "http://snomed.info/sct",
                "code": "440081000124100",
                "display": "Descedent's Home"
              }
            ]
          }
        ],
        "address": {
          "city": "Danville",
          "country": "US"
        }
      }
    },
    {
      "fullUrl": "urn:uuid:846db526-81e3-439b-9a8b-b04cf614af08",
      "resource": {
        "resourceType": "Condition",
        "id": "846db526-81e3-439b-9a8b-b04cf614af08",
        "meta": {
          "profile": [
            "http://hl7.org/fhir/us/vrdr/StructureDefinition/VRDR-Cause-Of-Death-Condition"
          ]
        },
        "category": [
          {
            "coding": [
              {
                "system": "http://snomed.info/sct",
                "code": "16100001",
                "display": "Death Diagnosis"
              }
            ]
          }
        ],
        "code": {
          "text": "Cocaine toxicity"
        },
        "subject": {
          "reference": "urn:uuid:92737e6e-24ba-4f2f-880f-7b48c84769b9"
        },
        "onsetString": "1 hour",
        "asserter": {
          "reference": "urn:uuid:b924de7f-aa28-45fc-a54c-f9c8216e3f89"
        }
      }
    },
    {
      "fullUrl": "urn:uuid:6805ab1d-6313-455d-846e-03f6289aa67c",
      "resource": {
        "resourceType": "Condition",
        "id": "6805ab1d-6313-455d-846e-03f6289aa67c",
        "meta": {
          "profile": [
            "http://hl7.org/fhir/us/vrdr/StructureDefinition/VRDR-Condition-Contributing-To-Death"
          ]
        },
        "category": [
          {
            "coding": [
              {
                "system": "http://snomed.info/sct",
                "code": "16100001",
                "display": "Death diagnosis"
              }
            ]
          },
          {
            "coding": [
              {
                "system": "http://snomed.info/sct",
                "code": "16100001",
                "display": "Death Diagnosis"
              }
            ]
          }
        ],
        "code": {
          "text": "hypertensive heart disease"
        },
        "subject": {
          "reference": "urn:uuid:92737e6e-24ba-4f2f-880f-7b48c84769b9"
        },
        "asserter": {
          "reference": "urn:uuid:b924de7f-aa28-45fc-a54c-f9c8216e3f89"
        }
      }
    },
    {
      "fullUrl": "urn:uuid:e0ac48a5-6e75-42b7-ba26-068676c4c34a",
      "resource": {
        "resourceType": "Observation",
        "id": "e0ac48a5-6e75-42b7-ba26-068676c4c34a",
        "meta": {
          "profile": [
            "http://hl7.org/fhir/us/vrdr/StructureDefinition/VRDR-Examiner-Contacted"
          ]
        },
        "status": "final",
        "code": {
          "coding": [
            {
              "system": "http://loinc.org",
              "code": "74497-9",
              "display": "Medical examiner or coroner was contacted [US Standard Certificate of Death]"
            }
          ]
        },
        "subject": {
          "reference": "urn:uuid:92737e6e-24ba-4f2f-880f-7b48c84769b9"
        },
        "valueCodeableConcept": {
          "coding": [
            {
              "system": "urn:oid:2.16.840.1.113883.12.136",
              "code": "Y",
              "display": "Yes"
            }
          ]
        }
      }
    },
    {
      "fullUrl": "urn:uuid:f45b886e-b106-4e58-a489-62996538a60d",
      "resource": {
        "resourceType": "Observation",
        "id": "f45b886e-b106-4e58-a489-62996538a60d",
        "meta": {
          "profile": [
            "http://hl7.org/fhir/us/vrdr/StructureDefinition/VRDR-Manner-of-Death"
          ]
        },
        "status": "final",
        "code": {
          "coding": [
            {
              "system": "http://loinc.org",
              "code": "69449-7",
              "display": "Manner of death"
            }
          ]
        },
        "subject": {
          "reference": "urn:uuid:92737e6e-24ba-4f2f-880f-7b48c84769b9"
        },
        "performer": [
          {
            "reference": "urn:uuid:b924de7f-aa28-45fc-a54c-f9c8216e3f89"
          }
        ],
        "valueCodeableConcept": {
          "coding": [
            {
              "system": "http://snomed.info/sct",
              "code": "7878000",
              "display": "Accidental death"
            }
          ]
        }
      }
    },
    {
      "fullUrl": "urn:uuid:176b6acb-e496-44db-8a02-5daa180de06a",
      "resource": {
        "resourceType": "Observation",
        "id": "176b6acb-e496-44db-8a02-5daa180de06a",
        "meta": {
          "profile": [
            "http://hl7.org/fhir/us/vrdr/StructureDefinition/VRDR-InjuryIncident"
          ]
        },
        "extension": [
          {
            "url": "http://hl7.org/fhir/us/vrdr/StructureDefinition/VRDR-Observation-Location",
            "valueReference": {
              "reference": "urn:uuid:f48faa30-233d-42a9-9244-2392ac02ffbb"
            }
          }
        ],
        "status": "final",
        "code": {
          "coding": [
            {
              "system": "http://loinc.org",
              "code": "11374-6",
              "display": "Injury incident description Narrative"
            }
          ]
        },
        "subject": {
          "reference": "urn:uuid:92737e6e-24ba-4f2f-880f-7b48c84769b9"
        },
        "effectiveDateTime": "2022-01-05T13:00:00",
        "valueString": "drug toxicity",
        "component": [
          {
            "code": {
              "coding": [
                {
                  "system": "http://loinc.org",
                  "code": "69444-8",
                  "display": "Did death result from injury at work"
                }
              ]
            },
            "valueCodeableConcept": {
              "coding": [
                {
                  "system": "urn:oid:2.16.840.1.113883.12.136",
                  "code": "N",
                  "display": "No"
                }
              ]
            }
          },
          {
            "code": {
              "coding": [
                {
                  "system": "http://loinc.org",
                  "code": "69450-5",
                  "display": "Place of injury Facility"
                }
              ]
            },
            "valueCodeableConcept": {
              "coding": [
                {
                  "system": "urn:oid:2.16.840.1.114222.4.5.320",
                  "code": "0",
                  "display": "Home"
                }
              ]
            }
          },
          {
            "code": {
              "coding": [
                {
                  "system": "http://loinc.org",
                  "code": "69448-9",
                  "display": "Injury leading to death associated with transportation event"
                }
              ]
            },
            "valueCodeableConcept": {
              "coding": [
                {
                  "system": "urn:oid:2.16.840.1.113883.12.136",
                  "code": "N",
                  "display": "No"
                }
              ]
            }
          }
        ]
      }
    },
    {
      "fullUrl": "urn:uuid:f48faa30-233d-42a9-9244-2392ac02ffbb",
      "resource": {
        "resourceType": "Location",
        "id": "f48faa30-233d-42a9-9244-2392ac02ffbb",
        "meta": {
          "profile": [
            "http://hl7.org/fhir/us/vrdr/StructureDefinition/VRDR-Injury-Location"
          ]
        },
        "description": "5590 Lockwood Drive 20621 US"
      }
    },
    {
      "fullUrl": "urn:uuid:175e47ab-f202-4245-9cc5-5e068439f288",
      "resource": {
        "resourceType": "Observation",
        "id": "175e47ab-f202-4245-9cc5-5e068439f288",
        "meta": {
          "profile": [
            "http://hl7.org/fhir/us/vrdr/StructureDefinition/VRDR-Autopsy-Performed-Indicator"
          ]
        },
        "status": "final",
        "code": {
          "coding": [
            {
              "system": "http://loinc.org",
              "code": "85699-7",
              "display": "Autopsy was performed"
            }
          ]
        },
        "subject": {
          "reference": "urn:uuid:92737e6e-24ba-4f2f-880f-7b48c84769b9"
        },
        "valueCodeableConcept": {
          "coding": [
            {
              "system": "urn:oid:2.16.840.1.113883.12.136",
              "code": "Y",
              "display": "Yes"
            }
          ]
        },
        "component": [
          {
            "code": {
              "coding": [
                {
                  "system": "http://loinc.org",
                  "code": "69436-4",
                  "display": "Autopsy results available"
                }
              ]
            },
            "valueCodeableConcept": {
              "coding": [
                {
                  "system": "urn:oid:2.16.840.1.113883.12.136",
                  "code": "Y",
                  "display": "Yes"
                }
              ]
            }
          }
        ]
      }
    },
    {
      "fullUrl": "urn:uuid:3f84b23c-b424-4b09-a248-215a8243de55",
      "resource": {
        "resourceType": "Observation",
        "id": "3f84b23c-b424-4b09-a248-215a8243de55",
        "meta": {
          "profile": [
            "http://hl7.org/fhir/us/vrdr/StructureDefinition/VRDR-Decedent-Disposition-Method"
          ]
        },
        "extension": [
          {
            "url": "http://hl7.org/fhir/us/vrdr/StructureDefinition/VRDR-Observation-Location",
            "valueReference": {
              "reference": "urn:uuid:6c55e4ef-8578-45f4-a317-8ea226b2a093"
            }
          }
        ],
        "status": "final",
        "code": {
          "coding": [
            {
              "system": "http://loinc.org",
              "code": "80905-3",
              "display": "Body disposition method"
            }
          ]
        },
        "subject": {
          "reference": "urn:uuid:92737e6e-24ba-4f2f-880f-7b48c84769b9"
        },
        "performer": [
          {
            "reference": "urn:uuid:d57a1405-74fe-4f5b-b178-f5101346db14"
          }
        ],
        "valueCodeableConcept": {
          "coding": [
            {
              "system": "http://snomed.info/sct",
              "code": "449971000124106",
              "display": "Patient status determination, deceased and buried"
            }
          ]
        }
      }
    },
    {
      "fullUrl": "urn:uuid:0de84fd8-770b-4aaa-be45-2b241cc637ec",
      "resource": {
        "resourceType": "Observation",
        "id": "0de84fd8-770b-4aaa-be45-2b241cc637ec",
        "meta": {
          "profile": [
            "http://hl7.org/fhir/us/vrdr/StructureDefinition/VRDR-Decedent-Pregnancy"
          ]
        },
        "status": "final",
        "code": {
          "coding": [
            {
              "system": "http://loinc.org",
              "code": "69442-2",
              "display": "Timing of recent pregnancy in relation to death"
            }
          ]
        },
        "subject": {
          "reference": "urn:uuid:92737e6e-24ba-4f2f-880f-7b48c84769b9"
        },
        "valueCodeableConcept": {
          "coding": [
            {
              "system": "urn:oid:2.16.840.1.114222.4.5.274",
              "code": "PHC1260",
              "display": "Not pregnant within the past year"
            }
          ]
        }
      }
    },
    {
      "fullUrl": "urn:uuid:fbaed2f5-4def-4614-8089-7d740a1fa67f",
      "resource": {
        "resourceType": "Observation",
        "id": "fbaed2f5-4def-4614-8089-7d740a1fa67f",
        "meta": {
          "profile": [
            "http://hl7.org/fhir/us/vrdr/StructureDefinition/VRDR-Tobacco-Use-Contributed-To-Death"
          ]
        },
        "status": "final",
        "code": {
          "coding": [
            {
              "system": "http://loinc.org",
              "code": "69443-0",
              "display": "Did tobacco use contribute to death"
            }
          ]
        },
        "subject": {
          "reference": "urn:uuid:92737e6e-24ba-4f2f-880f-7b48c84769b9"
        },
        "valueCodeableConcept": {
          "coding": [
            {
              "system": "http://snomed.info/sct",
              "code": "373067005",
              "display": "No"
            }
          ]
        }
      }
    },
    {
      "fullUrl": "urn:uuid:776501ba-302e-4d9e-986f-83eab7d59de7",
      "resource": {
        "resourceType": "Observation",
        "id": "776501ba-302e-4d9e-986f-83eab7d59de7",
        "meta": {
          "profile": [
            "http://hl7.org/fhir/us/vrdr/StructureDefinition/VRDR-Decedent-Military-Service"
          ]
        },
        "status": "final",
        "code": {
          "coding": [
            {
              "system": "http://loinc.org",
              "code": "55280-2",
              "display": "Military service Narrative"
            }
          ]
        },
        "subject": {
          "reference": "urn:uuid:92737e6e-24ba-4f2f-880f-7b48c84769b9"
        },
        "valueCodeableConcept": {
          "coding": [
            {
              "system": "urn:oid:2.16.840.1.113883.12.136",
              "code": "Y",
              "display": "Yes"
            }
          ]
        }
      }
    }
  ]
}
