{
  "resourceType": "Bundle",
  "id": "199bbec2-39be-42a6-ba3f-042636545de3",
  "meta": {
    "profile": [
      "http://hl7.org/fhir/us/vrdr/StructureDefinition/VRDR-Death-Certificate-Document"
    ]
  },
  "identifier": {
    "system": "http://nchs.cdc.gov/vrdr_id",
    "value": "2022MA000021"
  },
  "type": "document",
  "timestamp": "2022-01-25T13:19:10.022356-05:00",
  "entry": [
    {
      "fullUrl": "urn:uuid:59fdefc2-1695-4b42-9234-02b20960597f",
      "resource": {
        "resourceType": "Composition",
        "id": "59fdefc2-1695-4b42-9234-02b20960597f",
        "meta": {
          "profile": [
            "http://hl7.org/fhir/us/vrdr/StructureDefinition/VRDR-Death-Certificate"
          ]
        },
        "status": "final",
        "type": {
          "coding": [
            {
              "system": "http://loinc.org",
              "code": "64297-5",
              "display": "Death certificate"
            }
          ]
        },
        "subject": {
          "reference": "urn:uuid:b4b410ba-06f6-4a82-8f0c-e3b1506df785"
        },
        "date": "2022-01-09",
        "author": [
          {
            "reference": "urn:uuid:cfdd3fef-ff83-4879-bf04-a8c7eafe2876"
          }
        ],
        "title": "Death Certificate",
        "attester": [
          {
            "mode": "legal",
            "time": "2022-01-08",
            "party": {
              "reference": "urn:uuid:cfdd3fef-ff83-4879-bf04-a8c7eafe2876"
            }
          }
        ],
        "event": [
          {
            "code": [
              {
                "coding": [
                  {
                    "system": "http://snomed.info/sct",
                    "code": "103693007",
                    "display": "Diagnostic procedure (procedure)"
                  }
                ]
              }
            ],
            "detail": [
              {
                "reference": "urn:uuid:71df692b-9905-4314-a1f4-e5b2149e8c62"
              }
            ]
          }
        ],
        "section": [
          {
            "entry": [
              {
                "reference": "urn:uuid:b4b410ba-06f6-4a82-8f0c-e3b1506df785"
              },
              {
                "reference": "urn:uuid:cfdd3fef-ff83-4879-bf04-a8c7eafe2876"
              },
              {
                "reference": "urn:uuid:09a91e2c-5a7c-4642-aa1f-f56a183534cb"
              },
              {
                "reference": "urn:uuid:968da822-db70-4f1c-b8c0-9ca96c2316dd"
              },
              {
                "reference": "urn:uuid:71df692b-9905-4314-a1f4-e5b2149e8c62"
              },
              {
                "reference": "urn:uuid:291a64a3-5599-4fe0-a276-9d9caa7c4e6d"
              },
              {
                "reference": "urn:uuid:271132c2-e099-4477-86c1-80efb4b9354b"
              },
              {
                "reference": "urn:uuid:94c79f2a-a92d-4a40-a816-257da5c2d0b7"
              },
              {
                "reference": "urn:uuid:47047179-0eb4-45f6-8845-20b4c6ba54fe"
              },
              {
                "reference": "urn:uuid:49fd7035-184b-4221-aa24-4395b6f5b743"
              },
              {
                "reference": "urn:uuid:f99ce21d-8dfc-47b8-968e-b447589fb531"
              },
              {
                "reference": "urn:uuid:4383e84c-22bd-409f-96d8-672b9182277c"
              },
              {
                "reference": "urn:uuid:1201f20e-9305-4304-b44e-a622783b1c18"
              },
              {
                "reference": "urn:uuid:e38dfa54-a466-4308-b16c-0f97e26a57d5"
              },
              {
                "reference": "urn:uuid:395c12bb-4bb6-4498-abd3-0865dcc7cd79"
              },
              {
                "reference": "urn:uuid:60715315-75c4-4dd8-a6ca-cc7c552a6429"
              },
              {
                "reference": "urn:uuid:07bdd75c-e735-489a-a9c6-21bcda47c8ac"
              },
              {
                "reference": "urn:uuid:665cb103-d606-4e69-8fbf-f9c3b54fa360"
              },
              {
                "reference": "urn:uuid:1af8cafd-02d0-4d18-8c19-b3286540770c"
              },
              {
                "reference": "urn:uuid:193bd6f0-d7b2-421e-8116-886ad03f8ad7"
              },
              {
                "reference": "urn:uuid:b8097c29-e28d-49ef-aa62-b2408225cbcd"
              },
              {
                "reference": "urn:uuid:32ddd33b-b451-45cc-9542-c0f4b0394a96"
              },
              {
                "reference": "urn:uuid:2306e3a0-7f56-4e5d-b4e0-aaa0720a9054"
              },
              {
                "reference": "urn:uuid:b890fb64-671e-4356-8f8f-ae3f3d824642"
              },
              {
                "reference": "urn:uuid:ec98397c-19b8-45db-b642-97628f51696c"
              },
              {
                "reference": "urn:uuid:d4b376d2-c896-4416-8fe8-f8cff3e1da20"
              },
              {
                "reference": "urn:uuid:6ee70c7f-f071-4a0e-b9f6-51f5063a166c"
              }
            ]
          }
        ]
      }
    },
    {
      "fullUrl": "urn:uuid:b4b410ba-06f6-4a82-8f0c-e3b1506df785",
      "resource": {
        "resourceType": "Patient",
        "id": "b4b410ba-06f6-4a82-8f0c-e3b1506df785",
        "meta": {
          "profile": [
            "http://hl7.org/fhir/us/vrdr/StructureDefinition/VRDR-Decedent"
          ]
        },
        "extension": [
          {
            "extension": [
              {
                "url": "ombCategory",
                "valueCoding": {
                  "system": "urn:oid:2.16.840.1.113883.6.238",
                  "code": "2106-3",
                  "display": "White"
                }
              },
              {
                "url": "text",
                "valueString": "White"
              }
            ],
            "url": "http://hl7.org/fhir/us/core/StructureDefinition/us-core-race"
          },
          {
            "extension": [
              {
                "url": "detailed",
                "valueCoding": {
                  "system": "urn:oid:2.16.840.1.113883.6.238",
                  "code": "2180-8",
                  "display": "Puerto Rican"
                }
              },
              {
                "url": "text",
                "valueString": "Puerto Rican"
              }
            ],
            "url": "http://hl7.org/fhir/us/core/StructureDefinition/us-core-ethnicity"
          },
          {
            "url": "http://hl7.org/fhir/us/core/StructureDefinition/us-core-birthsex",
            "valueCode": "F"
          },
          {
            "url": "http://hl7.org/fhir/StructureDefinition/patient-birthPlace",
            "valueAddress": {
              "city": "Atlanta",
              "state": "GA",
              "country": "US"
            }
          }
        ],
        "identifier": [
          {
            "type": {
              "coding": [
                {
                  "system": "http://terminology.hl7.org/CodeSystem/v2-0203",
                  "code": "SB",
                  "display": "Social Beneficiary Identifier"
                }
              ]
            },
            "system": "http://hl7.org/fhir/sid/us-ssn",
            "value": "555111234"
          }
        ],
        "name": [
          {
            "use": "official",
            "family": "Page",
            "given": [
              "Janet"
            ]
          }
        ],
        "birthDate": "1949-01-15",
        "address": [
          {
            "extension": [
              {
                "url": "http://hl7.org/fhir/us/vrdr/StructureDefinition/Within-City-Limits-Indicator",
                "valueCoding": {
                  "system": "urn:oid:2.16.840.1.113883.12.136",
                  "code": "Y",
                  "display": "Yes"
                }
              }
            ],
            "line": [
              "25 Hope Street"
            ],
            "city": "Atlanta",
            "district": "Fulton",
            "state": "GA",
            "country": "US"
          }
        ],
        "maritalStatus": {
          "coding": [
            {
              "system": "http://terminology.hl7.org/CodeSystem/v3-MaritalStatus",
              "code": "D",
              "display": "Divorced"
            }
          ]
        }
      }
    },
    {
      "fullUrl": "urn:uuid:cfdd3fef-ff83-4879-bf04-a8c7eafe2876",
      "resource": {
        "resourceType": "Practitioner",
        "id": "cfdd3fef-ff83-4879-bf04-a8c7eafe2876",
        "meta": {
          "profile": [
            "http://hl7.org/fhir/us/vrdr/StructureDefinition/VRDR-Certifier"
          ]
        },
        "name": [
          {
            "use": "official",
            "family": "Jones",
            "given": [
              "Sam"
            ]
          }
        ],
        "address": [
          {
            "line": [
              "1 Main Street"
            ],
            "city": "Atlanta",
            "state": "GA",
            "postalCode": "30303",
            "country": "US"
          }
        ]
      }
    },
    {
      "fullUrl": "urn:uuid:09a91e2c-5a7c-4642-aa1f-f56a183534cb",
      "resource": {
        "resourceType": "Practitioner",
        "id": "09a91e2c-5a7c-4642-aa1f-f56a183534cb",
        "meta": {
          "profile": [
            "http://hl7.org/fhir/us/vrdr/StructureDefinition/VRDR-Death-Pronouncement-Performer"
          ]
        },
        "name": [
          {
            "use": "official",
            "family": "Jones",
            "given": [
              "Sam"
            ]
          }
        ]
      }
    },
    {
      "fullUrl": "urn:uuid:968da822-db70-4f1c-b8c0-9ca96c2316dd",
      "resource": {
        "resourceType": "Practitioner",
        "id": "968da822-db70-4f1c-b8c0-9ca96c2316dd",
        "meta": {
          "profile": [
            "http://hl7.org/fhir/us/vrdr/StructureDefinition/VRDR-Mortician"
          ]
        },
        "identifier": [
          {
            "system": "http://hl7.org/fhir/sid/us-npi",
            "value": "111111AB"
          }
        ],
        "name": [
          {
            "use": "official",
            "family": "Winston",
            "given": [
              "Maureen",
              "P"
            ]
          }
        ]
      }
    },
    {
      "fullUrl": "urn:uuid:71df692b-9905-4314-a1f4-e5b2149e8c62",
      "resource": {
        "resourceType": "Procedure",
        "id": "71df692b-9905-4314-a1f4-e5b2149e8c62",
        "meta": {
          "profile": [
            "http://hl7.org/fhir/us/vrdr/StructureDefinition/VRDR-Death-Certification"
          ]
        },
        "identifier": [
          {
            "value": "21"
          }
        ],
        "status": "completed",
        "category": {
          "coding": [
            {
              "system": "http://snomed.info/sct",
              "code": "103693007",
              "display": "Diagnostic procedure"
            }
          ]
        },
        "code": {
          "coding": [
            {
              "system": "http://snomed.info/sct",
              "code": "308646001",
              "display": "Death certification"
            }
          ]
        },
        "subject": {
          "reference": "urn:uuid:b4b410ba-06f6-4a82-8f0c-e3b1506df785"
        },
        "performedDateTime": "2022-01-08",
        "performer": [
          {
            "function": {
              "coding": [
                {
                  "system": "http://snomed.info/sct",
                  "code": "434641000124105",
                  "display": "Death certification and verification by physician"
                }
              ]
            },
            "actor": {
              "reference": "urn:uuid:cfdd3fef-ff83-4879-bf04-a8c7eafe2876"
            }
          }
        ]
      }
    },
    {
      "fullUrl": "urn:uuid:291a64a3-5599-4fe0-a276-9d9caa7c4e6d",
      "resource": {
        "resourceType": "Organization",
        "id": "291a64a3-5599-4fe0-a276-9d9caa7c4e6d",
        "meta": {
          "profile": [
            "http://hl7.org/fhir/us/vrdr/StructureDefinition/VRDR-Interested-Party"
          ]
        },
        "active": true
      }
    },
    {
      "fullUrl": "urn:uuid:271132c2-e099-4477-86c1-80efb4b9354b",
      "resource": {
        "resourceType": "Organization",
        "id": "271132c2-e099-4477-86c1-80efb4b9354b",
        "meta": {
          "profile": [
            "http://hl7.org/fhir/us/vrdr/StructureDefinition/VRDR-Funeral-Home"
          ]
        },
        "active": true,
        "type": [
          {
            "coding": [
              {
                "system": "http://terminology.hl7.org/CodeSystem/organization-type",
                "code": "bus",
                "display": "Non-Healthcare Business or Corporation"
              }
            ]
          }
        ],
        "name": "Pecan Street Funeral Home and Crematory",
        "address": [
          {
            "line": [
              "15 Pecan Street"
            ],
            "city": "Atlanta",
            "state": "GA",
            "postalCode": "30301",
            "country": "US"
          }
        ]
      }
    },
    {
      "fullUrl": "urn:uuid:94c79f2a-a92d-4a40-a816-257da5c2d0b7",
      "resource": {
        "resourceType": "PractitionerRole",
        "id": "94c79f2a-a92d-4a40-a816-257da5c2d0b7",
        "meta": {
          "profile": [
            "http://hl7.org/fhir/us/vrdr/StructureDefinition/VRDR-Funeral-Service-Licensee"
          ]
        },
        "practitioner": {
          "reference": "urn:uuid:968da822-db70-4f1c-b8c0-9ca96c2316dd"
        },
        "organization": {
          "reference": "urn:uuid:271132c2-e099-4477-86c1-80efb4b9354b"
        }
      }
    },
    {
      "fullUrl": "urn:uuid:47047179-0eb4-45f6-8845-20b4c6ba54fe",
      "resource": {
        "resourceType": "List",
        "id": "47047179-0eb4-45f6-8845-20b4c6ba54fe",
        "meta": {
          "profile": [
            "http://hl7.org/fhir/us/vrdr/StructureDefinition/VRDR-Cause-of-Death-Pathway"
          ]
        },
        "status": "current",
        "mode": "snapshot",
        "source": {
          "reference": "urn:uuid:cfdd3fef-ff83-4879-bf04-a8c7eafe2876"
        },
        "orderedBy": {
          "coding": [
            {
              "system": "http://terminology.hl7.org/CodeSystem/list-order",
              "code": "priority",
              "display": "Sorted by Priority"
            }
          ]
        },
        "entry": [
          {
            "item": {
              "reference": "urn:uuid:1af8cafd-02d0-4d18-8c19-b3286540770c"
            }
          },
          {
            "item": {
              "reference": "urn:uuid:193bd6f0-d7b2-421e-8116-886ad03f8ad7"
            }
          }
        ]
      }
    },
    {
      "fullUrl": "urn:uuid:49fd7035-184b-4221-aa24-4395b6f5b743",
      "resource": {
        "resourceType": "Location",
        "id": "49fd7035-184b-4221-aa24-4395b6f5b743",
        "meta": {
          "profile": [
            "http://hl7.org/fhir/us/vrdr/StructureDefinition/VRDR-Disposition-Location"
          ]
        },
        "name": "Pecan Street Funeral Home and Crematory",
        "address": {
          "line": [
            "15 Pecan Street"
          ],
          "city": "Atlanta",
          "state": "GA",
          "postalCode": "30301",
          "country": "US"
        },
        "physicalType": {
          "coding": [
            {
              "system": "http://terminology.hl7.org/CodeSystem/location-physical-type",
              "code": "si",
              "display": "Site"
            }
          ]
        }
      }
    },
    {
      "fullUrl": "urn:uuid:f99ce21d-8dfc-47b8-968e-b447589fb531",
      "resource": {
        "resourceType": "Observation",
        "id": "f99ce21d-8dfc-47b8-968e-b447589fb531",
        "meta": {
          "profile": [
            "http://hl7.org/fhir/us/vrdr/StructureDefinition/VRDR-Decedent-Age"
          ]
        },
        "status": "final",
        "code": {
          "coding": [
            {
              "system": "http://loinc.org",
              "code": "30525-0",
              "display": "Age"
            }
          ]
        },
        "subject": {
          "reference": "urn:uuid:b4b410ba-06f6-4a82-8f0c-e3b1506df785"
        },
        "valueQuantity": {
          "value": 72,
          "unit": "a"
        }
      }
    },
    {
      "fullUrl": "urn:uuid:4383e84c-22bd-409f-96d8-672b9182277c",
      "resource": {
        "resourceType": "Observation",
        "id": "4383e84c-22bd-409f-96d8-672b9182277c",
        "meta": {
          "profile": [
            "http://hl7.org/fhir/us/vrdr/StructureDefinition/VRDR-BirthRecordIdentifier"
          ]
        },
        "status": "final",
        "code": {
          "coding": [
            {
              "system": "http://terminology.hl7.org/CodeSystem/v2-0203",
              "code": "BR",
              "display": "Birth registry number"
            }
          ]
        },
        "subject": {
          "reference": "urn:uuid:b4b410ba-06f6-4a82-8f0c-e3b1506df785"
        },
        "valueString": "515151",
        "component": [
          {
            "code": {
              "coding": [
                {
                  "system": "http://loinc.org",
                  "code": "21842-0",
                  "display": "Birthplace"
                }
              ]
            },
            "valueCodeableConcept": {
              "coding": [
                {
                  "system": "urn:iso:std:iso:3166:-2",
                  "code": "US-GA",
                  "display": "US-GA"
                }
              ]
            }
          }
        ]
      }
    },
    {
      "fullUrl": "urn:uuid:1201f20e-9305-4304-b44e-a622783b1c18",
      "resource": {
        "resourceType": "RelatedPerson",
        "id": "1201f20e-9305-4304-b44e-a622783b1c18",
        "meta": {
          "profile": [
            "http://hl7.org/fhir/us/vrdr/StructureDefinition/VRDR-Decedent-Mother"
          ]
        },
        "patient": {
          "reference": "urn:uuid:b4b410ba-06f6-4a82-8f0c-e3b1506df785"
        },
        "relationship": [
          {
            "coding": [
              {
                "system": "http://terminology.hl7.org/CodeSystem/v3-RoleCode",
                "code": "MTH",
                "display": "mother"
              }
            ]
          }
        ],
        "name": [
          {
            "family": "Shay",
            "given": [
              "Linda"
            ]
          }
        ]
      }
    },
    {
      "fullUrl": "urn:uuid:e38dfa54-a466-4308-b16c-0f97e26a57d5",
      "resource": {
        "resourceType": "RelatedPerson",
        "id": "e38dfa54-a466-4308-b16c-0f97e26a57d5",
        "meta": {
          "profile": [
            "http://hl7.org/fhir/us/vrdr/StructureDefinition/VRDR-Decedent-Father"
          ]
        },
        "patient": {
          "reference": "urn:uuid:b4b410ba-06f6-4a82-8f0c-e3b1506df785"
        },
        "relationship": [
          {
            "coding": [
              {
                "system": "http://terminology.hl7.org/CodeSystem/v3-RoleCode",
                "code": "FTH",
                "display": "father"
              }
            ]
          }
        ],
        "name": [
          {
            "family": "Page"
          }
        ]
      }
    },
    {
      "fullUrl": "urn:uuid:395c12bb-4bb6-4498-abd3-0865dcc7cd79",
      "resource": {
        "resourceType": "Observation",
        "id": "395c12bb-4bb6-4498-abd3-0865dcc7cd79",
        "meta": {
          "profile": [
            "http://hl7.org/fhir/us/vrdr/StructureDefinition/VRDR-Decedent-Education-Level"
          ]
        },
        "status": "final",
        "code": {
          "coding": [
            {
              "system": "http://loinc.org",
              "code": "80913-7",
              "display": "Highest level of education [US Standard Certificate of Death]"
            }
          ]
        },
        "subject": {
          "reference": "urn:uuid:b4b410ba-06f6-4a82-8f0c-e3b1506df785"
        },
        "valueCodeableConcept": {
          "coding": [
            {
              "system": "urn:oid:2.16.840.1.114222.4.5.274",
              "code": "PHC1455",
              "display": "Doctorate Degree or Professional Degree"
            }
          ],
          "text": "Doctorate"
        }
      }
    },
    {
      "fullUrl": "urn:uuid:60715315-75c4-4dd8-a6ca-cc7c552a6429",
      "resource": {
        "resourceType": "Observation",
        "id": "60715315-75c4-4dd8-a6ca-cc7c552a6429",
        "meta": {
          "profile": [
            "http://hl7.org/fhir/us/vrdr/StructureDefinition/VRDR-Decedent-Usual-Work"
          ]
        },
        "status": "final",
        "code": {
          "coding": [
            {
              "system": "http://loinc.org",
              "code": "21843-8",
              "display": "History of Usual occupation"
            }
          ]
        },
        "subject": {
          "reference": "urn:uuid:b4b410ba-06f6-4a82-8f0c-e3b1506df785"
        },
        "valueCodeableConcept": {
          "coding": [
            {
              "system": "urn:oid:2.16.840.1.114222.4.5.314",
              "code": "1010",
              "display": "Computer Programmers"
            }
          ],
          "text": "Programmer"
        },
        "component": [
          {
            "code": {
              "coding": [
                {
                  "system": "http://loinc.org",
                  "code": "21844-6",
                  "display": "History of Usual industry"
                }
              ]
            },
            "valueCodeableConcept": {
              "coding": [
                {
                  "system": "urn:oid:2.16.840.1.114222.4.5.315",
                  "code": "6990",
                  "display": "Insurance carriers and related activities"
                }
              ],
              "text": "Health Insurance"
            }
          }
        ]
      }
    },
    {
      "fullUrl": "urn:uuid:07bdd75c-e735-489a-a9c6-21bcda47c8ac",
      "resource": {
        "resourceType": "Observation",
        "id": "07bdd75c-e735-489a-a9c6-21bcda47c8ac",
        "meta": {
          "profile": [
            "http://hl7.org/fhir/us/vrdr/StructureDefinition/VRDR-Death-Date"
          ]
        },
        "extension": [
          {
            "url": "http://hl7.org/fhir/us/vrdr/StructureDefinition/VRDR-Observation-Location",
            "valueReference": {
              "reference": "urn:uuid:665cb103-d606-4e69-8fbf-f9c3b54fa360"
            }
          }
        ],
        "status": "final",
        "code": {
          "coding": [
            {
              "system": "http://loinc.org",
              "code": "81956-5",
              "display": "Date and time of death"
            }
          ]
        },
        "subject": {
          "reference": "urn:uuid:b4b410ba-06f6-4a82-8f0c-e3b1506df785"
        },
        "effectiveDateTime": "2022-01-08T05:30:00",
        "performer": [
          {
            "reference": "urn:uuid:09a91e2c-5a7c-4642-aa1f-f56a183534cb"
          }
        ],
        "valueDateTime": "2022-01-08T05:30:00",
        "component": [
          {
            "code": {
              "coding": [
                {
                  "system": "http://loinc.org",
                  "code": "80616-6",
                  "display": "Date and time pronounced dead [US Standard Certificate of Death]"
                }
              ]
            },
            "valueDateTime": "2022-01-08T05:30:00"
          }
        ]
      }
    },
    {
      "fullUrl": "urn:uuid:665cb103-d606-4e69-8fbf-f9c3b54fa360",
      "resource": {
        "resourceType": "Location",
        "id": "665cb103-d606-4e69-8fbf-f9c3b54fa360",
        "meta": {
          "profile": [
            "http://hl7.org/fhir/us/vrdr/StructureDefinition/VRDR-Death-Location"
          ]
        },
        "extension": [
          {
            "url": "http://hl7.org/fhir/us/vrdr/StructureDefinition/Location-Jurisdiction-Id",
            "valueCodeableConcept": {
              "coding": [
                {
                  "system": "urn:oid:2.16.840.1.113883.6.92",
                  "code": "25",
                  "display": "MA"
                }
              ],
              "text": "MA"
            }
          }
        ],
        "name": "Pecan Grove Nursing Home",
        "description": "nursing home",
        "type": [
          {
            "coding": [
              {
                "system": "http://snomed.info/sct",
                "code": "450381000124100",
                "display": "Nursing Home"
              }
            ]
          }
        ],
        "address": {
          "city": "Atlanta",
          "country": "US"
        }
      }
    },
    {
      "fullUrl": "urn:uuid:1af8cafd-02d0-4d18-8c19-b3286540770c",
      "resource": {
        "resourceType": "Condition",
        "id": "1af8cafd-02d0-4d18-8c19-b3286540770c",
        "meta": {
          "profile": [
            "http://hl7.org/fhir/us/vrdr/StructureDefinition/VRDR-Cause-Of-Death-Condition"
          ]
        },
        "category": [
          {
            "coding": [
              {
                "system": "http://snomed.info/sct",
                "code": "16100001",
                "display": "Death Diagnosis"
              }
            ]
          }
        ],
        "code": {
          "text": "Congestive heart failure"
        },
        "subject": {
          "reference": "urn:uuid:b4b410ba-06f6-4a82-8f0c-e3b1506df785"
        },
        "onsetString": "1 hour",
        "asserter": {
          "reference": "urn:uuid:cfdd3fef-ff83-4879-bf04-a8c7eafe2876"
        }
      }
    },
    {
      "fullUrl": "urn:uuid:193bd6f0-d7b2-421e-8116-886ad03f8ad7",
      "resource": {
        "resourceType": "Condition",
        "id": "193bd6f0-d7b2-421e-8116-886ad03f8ad7",
        "meta": {
          "profile": [
            "http://hl7.org/fhir/us/vrdr/StructureDefinition/VRDR-Cause-Of-Death-Condition"
          ]
        },
        "category": [
          {
            "coding": [
              {
                "system": "http://snomed.info/sct",
                "code": "16100001",
                "display": "Death Diagnosis"
              }
            ]
          }
        ],
        "code": {
          "text": "breast cancer"
        },
        "subject": {
          "reference": "urn:uuid:b4b410ba-06f6-4a82-8f0c-e3b1506df785"
        },
        "onsetString": "20 years",
        "asserter": {
          "reference": "urn:uuid:cfdd3fef-ff83-4879-bf04-a8c7eafe2876"
        }
      }
    },
    {
      "fullUrl": "urn:uuid:b8097c29-e28d-49ef-aa62-b2408225cbcd",
      "resource": {
        "resourceType": "Observation",
        "id": "b8097c29-e28d-49ef-aa62-b2408225cbcd",
        "meta": {
          "profile": [
            "http://hl7.org/fhir/us/vrdr/StructureDefinition/VRDR-Examiner-Contacted"
          ]
        },
        "status": "final",
        "code": {
          "coding": [
            {
              "system": "http://loinc.org",
              "code": "74497-9",
              "display": "Medical examiner or coroner was contacted [US Standard Certificate of Death]"
            }
          ]
        },
        "subject": {
          "reference": "urn:uuid:b4b410ba-06f6-4a82-8f0c-e3b1506df785"
        },
        "valueCodeableConcept": {
          "coding": [
            {
              "system": "urn:oid:2.16.840.1.113883.12.136",
              "code": "N",
              "display": "No"
            }
          ]
        }
      }
    },
    {
      "fullUrl": "urn:uuid:32ddd33b-b451-45cc-9542-c0f4b0394a96",
      "resource": {
        "resourceType": "Observation",
        "id": "32ddd33b-b451-45cc-9542-c0f4b0394a96",
        "meta": {
          "profile": [
            "http://hl7.org/fhir/us/vrdr/StructureDefinition/VRDR-Manner-of-Death"
          ]
        },
        "status": "final",
        "code": {
          "coding": [
            {
              "system": "http://loinc.org",
              "code": "69449-7",
              "display": "Manner of death"
            }
          ]
        },
        "subject": {
          "reference": "urn:uuid:b4b410ba-06f6-4a82-8f0c-e3b1506df785"
        },
        "performer": [
          {
            "reference": "urn:uuid:cfdd3fef-ff83-4879-bf04-a8c7eafe2876"
          }
        ],
        "valueCodeableConcept": {
          "coding": [
            {
              "system": "http://snomed.info/sct",
              "code": "38605008",
              "display": "Natural death"
            }
          ]
        }
      }
    },
    {
      "fullUrl": "urn:uuid:2306e3a0-7f56-4e5d-b4e0-aaa0720a9054",
      "resource": {
        "resourceType": "Observation",
        "id": "2306e3a0-7f56-4e5d-b4e0-aaa0720a9054",
        "meta": {
          "profile": [
            "http://hl7.org/fhir/us/vrdr/StructureDefinition/VRDR-Autopsy-Performed-Indicator"
          ]
        },
        "status": "final",
        "code": {
          "coding": [
            {
              "system": "http://loinc.org",
              "code": "85699-7",
              "display": "Autopsy was performed"
            }
          ]
        },
        "subject": {
          "reference": "urn:uuid:b4b410ba-06f6-4a82-8f0c-e3b1506df785"
        },
        "valueCodeableConcept": {
          "coding": [
            {
              "system": "urn:oid:2.16.840.1.113883.12.136",
              "code": "N",
              "display": "No"
            }
          ]
        }
      }
    },
    {
      "fullUrl": "urn:uuid:b890fb64-671e-4356-8f8f-ae3f3d824642",
      "resource": {
        "resourceType": "Observation",
        "id": "b890fb64-671e-4356-8f8f-ae3f3d824642",
        "meta": {
          "profile": [
            "http://hl7.org/fhir/us/vrdr/StructureDefinition/VRDR-Decedent-Disposition-Method"
          ]
        },
        "extension": [
          {
            "url": "http://hl7.org/fhir/us/vrdr/StructureDefinition/VRDR-Observation-Location",
            "valueReference": {
              "reference": "urn:uuid:49fd7035-184b-4221-aa24-4395b6f5b743"
            }
          }
        ],
        "status": "final",
        "code": {
          "coding": [
            {
              "system": "http://loinc.org",
              "code": "80905-3",
              "display": "Body disposition method"
            }
          ]
        },
        "subject": {
          "reference": "urn:uuid:b4b410ba-06f6-4a82-8f0c-e3b1506df785"
        },
        "performer": [
          {
            "reference": "urn:uuid:968da822-db70-4f1c-b8c0-9ca96c2316dd"
          }
        ],
        "valueCodeableConcept": {
          "coding": [
            {
              "system": "http://snomed.info/sct",
              "code": "449961000124104",
              "display": "Patient status determination, deceased and cremated"
            }
          ]
        }
      }
    },
    {
      "fullUrl": "urn:uuid:ec98397c-19b8-45db-b642-97628f51696c",
      "resource": {
        "resourceType": "Observation",
        "id": "ec98397c-19b8-45db-b642-97628f51696c",
        "meta": {
          "profile": [
            "http://hl7.org/fhir/us/vrdr/StructureDefinition/VRDR-Decedent-Pregnancy"
          ]
        },
        "status": "final",
        "code": {
          "coding": [
            {
              "system": "http://loinc.org",
              "code": "69442-2",
              "display": "Timing of recent pregnancy in relation to death"
            }
          ]
        },
        "subject": {
          "reference": "urn:uuid:b4b410ba-06f6-4a82-8f0c-e3b1506df785"
        },
        "valueCodeableConcept": {
          "coding": [
            {
              "system": "http://terminology.hl7.org/CodeSystem/v3-NullFlavor",
              "code": "NA",
              "display": "not applicable"
            }
          ]
        }
      }
    },
    {
      "fullUrl": "urn:uuid:d4b376d2-c896-4416-8fe8-f8cff3e1da20",
      "resource": {
        "resourceType": "Observation",
        "id": "d4b376d2-c896-4416-8fe8-f8cff3e1da20",
        "meta": {
          "profile": [
            "http://hl7.org/fhir/us/vrdr/StructureDefinition/VRDR-Tobacco-Use-Contributed-To-Death"
          ]
        },
        "status": "final",
        "code": {
          "coding": [
            {
              "system": "http://loinc.org",
              "code": "69443-0",
              "display": "Did tobacco use contribute to death"
            }
          ]
        },
        "subject": {
          "reference": "urn:uuid:b4b410ba-06f6-4a82-8f0c-e3b1506df785"
        },
        "valueCodeableConcept": {
          "coding": [
            {
              "system": "http://terminology.hl7.org/CodeSystem/v3-NullFlavor",
              "code": "UNK",
              "display": "unknown"
            }
          ]
        }
      }
    },
    {
      "fullUrl": "urn:uuid:6ee70c7f-f071-4a0e-b9f6-51f5063a166c",
      "resource": {
        "resourceType": "Observation",
        "id": "6ee70c7f-f071-4a0e-b9f6-51f5063a166c",
        "meta": {
          "profile": [
            "http://hl7.org/fhir/us/vrdr/StructureDefinition/VRDR-Decedent-Military-Service"
          ]
        },
        "status": "final",
        "code": {
          "coding": [
            {
              "system": "http://loinc.org",
              "code": "55280-2",
              "display": "Military service Narrative"
            }
          ]
        },
        "subject": {
          "reference": "urn:uuid:b4b410ba-06f6-4a82-8f0c-e3b1506df785"
        },
        "valueCodeableConcept": {
          "coding": [
            {
              "system": "http://terminology.hl7.org/CodeSystem/v3-NullFlavor",
              "code": "UNK",
              "display": "unknown"
            }
          ]
        }
      }
    }
  ]
}
