{
  "resourceType": "Bundle",
  "id": "75de2680-8e1e-473d-86e9-57f81b6d0931",
  "meta": {
    "profile": [
      "http://hl7.org/fhir/us/vrdr/StructureDefinition/VRDR-Death-Certificate-Document"
    ]
  },
  "identifier": {
    "system": "http://nchs.cdc.gov/vrdr_id",
    "value": "2022MA000023"
  },
  "type": "document",
  "timestamp": "2022-01-25T13:21:00.371746-05:00",
  "entry": [
    {
      "fullUrl": "urn:uuid:b43c8e81-d6fb-4684-bd76-64ff630586d6",
      "resource": {
        "resourceType": "Composition",
        "id": "b43c8e81-d6fb-4684-bd76-64ff630586d6",
        "meta": {
          "profile": [
            "http://hl7.org/fhir/us/vrdr/StructureDefinition/VRDR-Death-Certificate"
          ]
        },
        "status": "final",
        "type": {
          "coding": [
            {
              "system": "http://loinc.org",
              "code": "64297-5",
              "display": "Death certificate"
            }
          ]
        },
        "subject": {
          "reference": "urn:uuid:85a5e343-8feb-43f0-8c7f-79b1569fa753"
        },
        "date": "2022-01-14",
        "author": [
          {
            "reference": "urn:uuid:30b21d4f-797c-419f-9db1-eb21ca6b1898"
          }
        ],
        "title": "Death Certificate",
        "attester": [
          {
            "mode": "legal",
            "time": "2022-01-13",
            "party": {
              "reference": "urn:uuid:30b21d4f-797c-419f-9db1-eb21ca6b1898"
            }
          }
        ],
        "event": [
          {
            "code": [
              {
                "coding": [
                  {
                    "system": "http://snomed.info/sct",
                    "code": "103693007",
                    "display": "Diagnostic procedure (procedure)"
                  }
                ]
              }
            ],
            "detail": [
              {
                "reference": "urn:uuid:120680bb-dd77-44f1-9b77-b98a5ebafb05"
              }
            ]
          }
        ],
        "section": [
          {
            "entry": [
              {
                "reference": "urn:uuid:85a5e343-8feb-43f0-8c7f-79b1569fa753"
              },
              {
                "reference": "urn:uuid:30b21d4f-797c-419f-9db1-eb21ca6b1898"
              },
              {
                "reference": "urn:uuid:011c726b-adb5-4383-88a2-805472016e93"
              },
              {
                "reference": "urn:uuid:cd7fee50-756d-48b1-96e3-d98e0f51c5f0"
              },
              {
                "reference": "urn:uuid:120680bb-dd77-44f1-9b77-b98a5ebafb05"
              },
              {
                "reference": "urn:uuid:ebd68872-c8bb-4c73-949b-1d100960eea7"
              },
              {
                "reference": "urn:uuid:b6157b44-5bf1-45b4-9f55-8f84f58850e2"
              },
              {
                "reference": "urn:uuid:acccf54f-d619-4a0e-a8d0-bd086f0063d0"
              },
              {
                "reference": "urn:uuid:a23b66c1-78b2-41af-a6aa-2542fcdb6dfe"
              },
              {
                "reference": "urn:uuid:a107a777-86d7-4ec9-a596-302a063e3fa3"
              },
              {
                "reference": "urn:uuid:74a77559-cf92-4250-9e06-7af878c8a194"
              },
              {
                "reference": "urn:uuid:f0f31fa0-609c-461d-bcbb-2884592a3e94"
              },
              {
                "reference": "urn:uuid:4e693cee-9871-4596-92fd-daab695fe616"
              },
              {
                "reference": "urn:uuid:b2889117-e67f-4555-a0bb-137f51437f4d"
              },
              {
                "reference": "urn:uuid:78442eef-1263-4d56-a73d-58deb7439958"
              },
              {
                "reference": "urn:uuid:84cac749-1b91-42a8-abbe-03ad2aa5356a"
              },
              {
                "reference": "urn:uuid:2355e9f5-e4c4-4a7c-ab00-370d95a1880d"
              },
              {
                "reference": "urn:uuid:c4dd0856-fc6d-45ac-9840-91ae2ab0b4e0"
              },
              {
                "reference": "urn:uuid:8ae307d2-a27c-4486-b252-dd7a7c28e9f3"
              },
              {
                "reference": "urn:uuid:267e94d9-9a59-4ce5-9e6d-8cde84cb2aaf"
              },
              {
                "reference": "urn:uuid:fa24c43e-5921-4096-a9d4-0b9f30f887d0"
              },
              {
                "reference": "urn:uuid:b6a858ab-e0fd-49b7-8462-0a96d472785e"
              },
              {
                "reference": "urn:uuid:324b8717-a44e-418d-986a-32b50b89ef5a"
              },
              {
                "reference": "urn:uuid:82797363-8458-47f1-b566-5b6fbcccc384"
              },
              {
                "reference": "urn:uuid:ada96a68-fb05-454e-a3f2-1163d166b55a"
              },
              {
                "reference": "urn:uuid:78b4405d-61ba-458e-989b-c0b38fb3cd1e"
              },
              {
                "reference": "urn:uuid:419d62c9-f702-4ed9-aeb9-1d848dcf9e74"
              }
            ]
          }
        ]
      }
    },
    {
      "fullUrl": "urn:uuid:85a5e343-8feb-43f0-8c7f-79b1569fa753",
      "resource": {
        "resourceType": "Patient",
        "id": "85a5e343-8feb-43f0-8c7f-79b1569fa753",
        "meta": {
          "profile": [
            "http://hl7.org/fhir/us/vrdr/StructureDefinition/VRDR-Decedent"
          ]
        },
        "extension": [
          {
            "extension": [
              {
                "url": "ombCategory",
                "valueCoding": {
                  "system": "urn:oid:2.16.840.1.113883.6.238",
                  "code": "2106-3",
                  "display": "White"
                }
              },
              {
                "url": "ombCategory",
                "valueCoding": {
                  "system": "urn:oid:2.16.840.1.113883.6.238",
                  "code": "1002-5",
                  "display": "American Indian or Alaska Native"
                }
              },
              {
                "url": "text",
                "valueString": "White, American Indian or Alaska Native"
              }
            ],
            "url": "http://hl7.org/fhir/us/core/StructureDefinition/us-core-race"
          },
          {
            "extension": [
              {
                "url": "ombCategory",
                "valueCoding": {
                  "system": "urn:oid:2.16.840.1.113883.6.238",
                  "code": "2135-2",
                  "display": "Hispanic or Latino"
                }
              },
              {
                "url": "detailed",
                "valueCoding": {
                  "system": "urn:oid:2.16.840.1.113883.6.238",
                  "code": "2161-8",
                  "display": "Salvadoran"
                }
              },
              {
                "url": "text",
                "valueString": "Hispanic or Latino, Salvadoran"
              }
            ],
            "url": "http://hl7.org/fhir/us/core/StructureDefinition/us-core-ethnicity"
          },
          {
            "url": "http://hl7.org/fhir/us/core/StructureDefinition/us-core-birthsex",
            "valueCode": "F"
          },
          {
            "url": "http://hl7.org/fhir/StructureDefinition/patient-birthPlace",
            "valueAddress": {
              "city": "Hinsdale",
              "state": "IL",
              "country": "US"
            }
          }
        ],
        "identifier": [
          {
            "type": {
              "coding": [
                {
                  "system": "http://terminology.hl7.org/CodeSystem/v2-0203",
                  "code": "SB",
                  "display": "Social Beneficiary Identifier"
                }
              ]
            },
            "system": "http://hl7.org/fhir/sid/us-ssn",
            "value": "789456123"
          }
        ],
        "name": [
          {
            "use": "official",
            "family": "Wright",
            "given": [
              "Vivienne",
              "L"
            ]
          }
        ],
        "birthDate": "2001-04-11",
        "address": [
          {
            "extension": [
              {
                "url": "http://hl7.org/fhir/us/vrdr/StructureDefinition/Within-City-Limits-Indicator",
                "valueCoding": {
                  "system": "urn:oid:2.16.840.1.113883.12.136",
                  "code": "Y",
                  "display": "Yes"
                }
              }
            ],
            "line": [
              "101 Liberty Lane"
            ],
            "city": "Harrisburg",
            "state": "PA",
            "country": "US"
          }
        ],
        "maritalStatus": {
          "coding": [
            {
              "system": "http://terminology.hl7.org/CodeSystem/v3-MaritalStatus",
              "code": "M",
              "display": "Married"
            }
          ]
        }
      }
    },
    {
      "fullUrl": "urn:uuid:30b21d4f-797c-419f-9db1-eb21ca6b1898",
      "resource": {
        "resourceType": "Practitioner",
        "id": "30b21d4f-797c-419f-9db1-eb21ca6b1898",
        "meta": {
          "profile": [
            "http://hl7.org/fhir/us/vrdr/StructureDefinition/VRDR-Certifier"
          ]
        },
        "name": [
          {
            "use": "official",
            "family": "Black",
            "given": [
              "Jim"
            ]
          }
        ],
        "address": [
          {
            "line": [
              "44 South Street"
            ],
            "city": "Bird in Hand",
            "state": "PA",
            "postalCode": "17505",
            "country": "US"
          }
        ]
      }
    },
    {
      "fullUrl": "urn:uuid:011c726b-adb5-4383-88a2-805472016e93",
      "resource": {
        "resourceType": "Practitioner",
        "id": "011c726b-adb5-4383-88a2-805472016e93",
        "meta": {
          "profile": [
            "http://hl7.org/fhir/us/vrdr/StructureDefinition/VRDR-Death-Pronouncement-Performer"
          ]
        },
        "name": [
          {
            "use": "official",
            "family": "Black",
            "given": [
              "Jim"
            ]
          }
        ]
      }
    },
    {
      "fullUrl": "urn:uuid:cd7fee50-756d-48b1-96e3-d98e0f51c5f0",
      "resource": {
        "resourceType": "Practitioner",
        "id": "cd7fee50-756d-48b1-96e3-d98e0f51c5f0",
        "meta": {
          "profile": [
            "http://hl7.org/fhir/us/vrdr/StructureDefinition/VRDR-Mortician"
          ]
        },
        "identifier": [
          {
            "system": "http://hl7.org/fhir/sid/us-npi",
            "value": "414444AB"
          }
        ],
        "name": [
          {
            "use": "official",
            "family": "Clark",
            "given": [
              "Joseph",
              "M"
            ]
          }
        ]
      }
    },
    {
      "fullUrl": "urn:uuid:120680bb-dd77-44f1-9b77-b98a5ebafb05",
      "resource": {
        "resourceType": "Procedure",
        "id": "120680bb-dd77-44f1-9b77-b98a5ebafb05",
        "meta": {
          "profile": [
            "http://hl7.org/fhir/us/vrdr/StructureDefinition/VRDR-Death-Certification"
          ]
        },
        "identifier": [
          {
            "value": "23"
          }
        ],
        "status": "completed",
        "category": {
          "coding": [
            {
              "system": "http://snomed.info/sct",
              "code": "103693007",
              "display": "Diagnostic procedure"
            }
          ]
        },
        "code": {
          "coding": [
            {
              "system": "http://snomed.info/sct",
              "code": "308646001",
              "display": "Death certification"
            }
          ]
        },
        "subject": {
          "reference": "urn:uuid:85a5e343-8feb-43f0-8c7f-79b1569fa753"
        },
        "performedDateTime": "2022-01-13",
        "performer": [
          {
            "function": {
              "coding": [
                {
                  "system": "http://snomed.info/sct",
                  "code": "310193003",
                  "display": "Coroner"
                }
              ]
            },
            "actor": {
              "reference": "urn:uuid:30b21d4f-797c-419f-9db1-eb21ca6b1898"
            }
          }
        ]
      }
    },
    {
      "fullUrl": "urn:uuid:ebd68872-c8bb-4c73-949b-1d100960eea7",
      "resource": {
        "resourceType": "Organization",
        "id": "ebd68872-c8bb-4c73-949b-1d100960eea7",
        "meta": {
          "profile": [
            "http://hl7.org/fhir/us/vrdr/StructureDefinition/VRDR-Interested-Party"
          ]
        },
        "active": true
      }
    },
    {
      "fullUrl": "urn:uuid:b6157b44-5bf1-45b4-9f55-8f84f58850e2",
      "resource": {
        "resourceType": "Organization",
        "id": "b6157b44-5bf1-45b4-9f55-8f84f58850e2",
        "meta": {
          "profile": [
            "http://hl7.org/fhir/us/vrdr/StructureDefinition/VRDR-Funeral-Home"
          ]
        },
        "active": true,
        "type": [
          {
            "coding": [
              {
                "system": "http://terminology.hl7.org/CodeSystem/organization-type",
                "code": "bus",
                "display": "Non-Healthcare Business or Corporation"
              }
            ]
          }
        ],
        "name": "Lancaster Funeral Home and Crematory",
        "address": [
          {
            "line": [
              "211 High Street"
            ],
            "city": "Lancaster",
            "state": "PA",
            "postalCode": "17573",
            "country": "US"
          }
        ]
      }
    },
    {
      "fullUrl": "urn:uuid:acccf54f-d619-4a0e-a8d0-bd086f0063d0",
      "resource": {
        "resourceType": "PractitionerRole",
        "id": "acccf54f-d619-4a0e-a8d0-bd086f0063d0",
        "meta": {
          "profile": [
            "http://hl7.org/fhir/us/vrdr/StructureDefinition/VRDR-Funeral-Service-Licensee"
          ]
        },
        "practitioner": {
          "reference": "urn:uuid:cd7fee50-756d-48b1-96e3-d98e0f51c5f0"
        },
        "organization": {
          "reference": "urn:uuid:b6157b44-5bf1-45b4-9f55-8f84f58850e2"
        }
      }
    },
    {
      "fullUrl": "urn:uuid:a23b66c1-78b2-41af-a6aa-2542fcdb6dfe",
      "resource": {
        "resourceType": "List",
        "id": "a23b66c1-78b2-41af-a6aa-2542fcdb6dfe",
        "meta": {
          "profile": [
            "http://hl7.org/fhir/us/vrdr/StructureDefinition/VRDR-Cause-of-Death-Pathway"
          ]
        },
        "status": "current",
        "mode": "snapshot",
        "source": {
          "reference": "urn:uuid:30b21d4f-797c-419f-9db1-eb21ca6b1898"
        },
        "orderedBy": {
          "coding": [
            {
              "system": "http://terminology.hl7.org/CodeSystem/list-order",
              "code": "priority",
              "display": "Sorted by Priority"
            }
          ]
        },
        "entry": [
          {
            "item": {
              "reference": "urn:uuid:8ae307d2-a27c-4486-b252-dd7a7c28e9f3"
            }
          },
          {
            "item": {
              "reference": "urn:uuid:267e94d9-9a59-4ce5-9e6d-8cde84cb2aaf"
            }
          }
        ]
      }
    },
    {
      "fullUrl": "urn:uuid:a107a777-86d7-4ec9-a596-302a063e3fa3",
      "resource": {
        "resourceType": "Location",
        "id": "a107a777-86d7-4ec9-a596-302a063e3fa3",
        "meta": {
          "profile": [
            "http://hl7.org/fhir/us/vrdr/StructureDefinition/VRDR-Disposition-Location"
          ]
        },
        "name": "Lancaster Funeral Home and Crematory",
        "address": {
          "line": [
            "211 High Street"
          ],
          "city": "Lancaster",
          "state": "PA",
          "postalCode": "17573",
          "country": "US"
        },
        "physicalType": {
          "coding": [
            {
              "system": "http://terminology.hl7.org/CodeSystem/location-physical-type",
              "code": "si",
              "display": "Site"
            }
          ]
        }
      }
    },
    {
      "fullUrl": "urn:uuid:74a77559-cf92-4250-9e06-7af878c8a194",
      "resource": {
        "resourceType": "Observation",
        "id": "74a77559-cf92-4250-9e06-7af878c8a194",
        "meta": {
          "profile": [
            "http://hl7.org/fhir/us/vrdr/StructureDefinition/VRDR-Decedent-Age"
          ]
        },
        "status": "final",
        "code": {
          "coding": [
            {
              "system": "http://loinc.org",
              "code": "30525-0",
              "display": "Age"
            }
          ]
        },
        "subject": {
          "reference": "urn:uuid:85a5e343-8feb-43f0-8c7f-79b1569fa753"
        },
        "valueQuantity": {
          "value": 19,
          "unit": "a"
        }
      }
    },
    {
      "fullUrl": "urn:uuid:f0f31fa0-609c-461d-bcbb-2884592a3e94",
      "resource": {
        "resourceType": "Observation",
        "id": "f0f31fa0-609c-461d-bcbb-2884592a3e94",
        "meta": {
          "profile": [
            "http://hl7.org/fhir/us/vrdr/StructureDefinition/VRDR-BirthRecordIdentifier"
          ]
        },
        "status": "final",
        "code": {
          "coding": [
            {
              "system": "http://terminology.hl7.org/CodeSystem/v2-0203",
              "code": "BR",
              "display": "Birth registry number"
            }
          ]
        },
        "subject": {
          "reference": "urn:uuid:85a5e343-8feb-43f0-8c7f-79b1569fa753"
        },
        "valueString": "717171",
        "component": [
          {
            "code": {
              "coding": [
                {
                  "system": "http://loinc.org",
                  "code": "21842-0",
                  "display": "Birthplace"
                }
              ]
            },
            "valueCodeableConcept": {
              "coding": [
                {
                  "system": "urn:iso:std:iso:3166:-2",
                  "code": "US-IL",
                  "display": "US-IL"
                }
              ]
            }
          }
        ]
      }
    },
    {
      "fullUrl": "urn:uuid:4e693cee-9871-4596-92fd-daab695fe616",
      "resource": {
        "resourceType": "RelatedPerson",
        "id": "4e693cee-9871-4596-92fd-daab695fe616",
        "meta": {
          "profile": [
            "http://hl7.org/fhir/us/vrdr/StructureDefinition/VRDR-Decedent-Mother"
          ]
        },
        "patient": {
          "reference": "urn:uuid:85a5e343-8feb-43f0-8c7f-79b1569fa753"
        },
        "relationship": [
          {
            "coding": [
              {
                "system": "http://terminology.hl7.org/CodeSystem/v3-RoleCode",
                "code": "MTH",
                "display": "mother"
              }
            ]
          }
        ],
        "name": [
          {
            "family": "White",
            "given": [
              "Martha"
            ]
          }
        ]
      }
    },
    {
      "fullUrl": "urn:uuid:b2889117-e67f-4555-a0bb-137f51437f4d",
      "resource": {
        "resourceType": "RelatedPerson",
        "id": "b2889117-e67f-4555-a0bb-137f51437f4d",
        "meta": {
          "profile": [
            "http://hl7.org/fhir/us/vrdr/StructureDefinition/VRDR-Decedent-Father"
          ]
        },
        "patient": {
          "reference": "urn:uuid:85a5e343-8feb-43f0-8c7f-79b1569fa753"
        },
        "relationship": [
          {
            "coding": [
              {
                "system": "http://terminology.hl7.org/CodeSystem/v3-RoleCode",
                "code": "FTH",
                "display": "father"
              }
            ]
          }
        ],
        "name": [
          {
            "family": "Wright"
          }
        ]
      }
    },
    {
      "fullUrl": "urn:uuid:78442eef-1263-4d56-a73d-58deb7439958",
      "resource": {
        "resourceType": "Observation",
        "id": "78442eef-1263-4d56-a73d-58deb7439958",
        "meta": {
          "profile": [
            "http://hl7.org/fhir/us/vrdr/StructureDefinition/VRDR-Decedent-Education-Level"
          ]
        },
        "status": "final",
        "code": {
          "coding": [
            {
              "system": "http://loinc.org",
              "code": "80913-7",
              "display": "Highest level of education [US Standard Certificate of Death]"
            }
          ]
        },
        "subject": {
          "reference": "urn:uuid:85a5e343-8feb-43f0-8c7f-79b1569fa753"
        },
        "valueCodeableConcept": {
          "coding": [
            {
              "system": "urn:oid:2.16.840.1.114222.4.5.274",
              "code": "PHC1449",
              "display": "9th through 12th grade; no diploma"
            }
          ],
          "text": "11th grade"
        }
      }
    },
    {
      "fullUrl": "urn:uuid:84cac749-1b91-42a8-abbe-03ad2aa5356a",
      "resource": {
        "resourceType": "Observation",
        "id": "84cac749-1b91-42a8-abbe-03ad2aa5356a",
        "meta": {
          "profile": [
            "http://hl7.org/fhir/us/vrdr/StructureDefinition/VRDR-Decedent-Usual-Work"
          ]
        },
        "status": "final",
        "code": {
          "coding": [
            {
              "system": "http://loinc.org",
              "code": "21843-8",
              "display": "History of Usual occupation"
            }
          ]
        },
        "subject": {
          "reference": "urn:uuid:85a5e343-8feb-43f0-8c7f-79b1569fa753"
        },
        "valueCodeableConcept": {
          "coding": [
            {
              "system": "urn:oid:2.16.840.1.114222.4.5.314",
              "code": "5700",
              "display": "Secretaries and administrative assistants"
            }
          ],
          "text": "secretary"
        },
        "component": [
          {
            "code": {
              "coding": [
                {
                  "system": "http://loinc.org",
                  "code": "21844-6",
                  "display": "History of Usual industry"
                }
              ]
            },
            "valueCodeableConcept": {
              "coding": [
                {
                  "system": "urn:oid:2.16.840.1.114222.4.5.315",
                  "code": "9390",
                  "display": "Other general government and support"
                }
              ],
              "text": "State agency"
            }
          }
        ]
      }
    },
    {
      "fullUrl": "urn:uuid:2355e9f5-e4c4-4a7c-ab00-370d95a1880d",
      "resource": {
        "resourceType": "Observation",
        "id": "2355e9f5-e4c4-4a7c-ab00-370d95a1880d",
        "meta": {
          "profile": [
            "http://hl7.org/fhir/us/vrdr/StructureDefinition/VRDR-Death-Date"
          ]
        },
        "extension": [
          {
            "url": "http://hl7.org/fhir/us/vrdr/StructureDefinition/VRDR-Observation-Location",
            "valueReference": {
              "reference": "urn:uuid:c4dd0856-fc6d-45ac-9840-91ae2ab0b4e0"
            }
          }
        ],
        "status": "final",
        "code": {
          "coding": [
            {
              "system": "http://loinc.org",
              "code": "81956-5",
              "display": "Date and time of death"
            }
          ]
        },
        "subject": {
          "reference": "urn:uuid:85a5e343-8feb-43f0-8c7f-79b1569fa753"
        },
        "effectiveDateTime": "2022-01-13T21:00:00",
        "performer": [
          {
            "reference": "urn:uuid:011c726b-adb5-4383-88a2-805472016e93"
          }
        ],
        "valueDateTime": "2022-01-13T21:00:00",
        "component": [
          {
            "code": {
              "coding": [
                {
                  "system": "http://loinc.org",
                  "code": "80616-6",
                  "display": "Date and time pronounced dead [US Standard Certificate of Death]"
                }
              ]
            },
            "valueDateTime": "2022-01-13T21:00:00"
          }
        ]
      }
    },
    {
      "fullUrl": "urn:uuid:c4dd0856-fc6d-45ac-9840-91ae2ab0b4e0",
      "resource": {
        "resourceType": "Location",
        "id": "c4dd0856-fc6d-45ac-9840-91ae2ab0b4e0",
        "meta": {
          "profile": [
            "http://hl7.org/fhir/us/vrdr/StructureDefinition/VRDR-Death-Location"
          ]
        },
        "extension": [
          {
            "url": "http://hl7.org/fhir/us/vrdr/StructureDefinition/Location-Jurisdiction-Id",
            "valueCodeableConcept": {
              "coding": [
                {
                  "system": "urn:oid:2.16.840.1.113883.6.92",
                  "code": "25",
                  "display": "MA"
                }
              ],
              "text": "MA"
            }
          }
        ],
        "name": "Mt. Olive Hospital",
        "description": "Emergency room",
        "type": [
          {
            "coding": [
              {
                "system": "http://snomed.info/sct",
                "code": "450391000124102",
                "display": "Death in emergency Room/Outpatient"
              }
            ]
          }
        ],
        "address": {
          "city": "Lancaster",
          "district": "Lancaster",
          "country": "US"
        }
      }
    },
    {
      "fullUrl": "urn:uuid:8ae307d2-a27c-4486-b252-dd7a7c28e9f3",
      "resource": {
        "resourceType": "Condition",
        "id": "8ae307d2-a27c-4486-b252-dd7a7c28e9f3",
        "meta": {
          "profile": [
            "http://hl7.org/fhir/us/vrdr/StructureDefinition/VRDR-Cause-Of-Death-Condition"
          ]
        },
        "category": [
          {
            "coding": [
              {
                "system": "http://snomed.info/sct",
                "code": "16100001",
                "display": "Death Diagnosis"
              }
            ]
          }
        ],
        "code": {
          "text": "Cardiopulmonary arrest"
        },
        "subject": {
          "reference": "urn:uuid:85a5e343-8feb-43f0-8c7f-79b1569fa753"
        },
        "onsetString": "4 hours",
        "asserter": {
          "reference": "urn:uuid:30b21d4f-797c-419f-9db1-eb21ca6b1898"
        }
      }
    },
    {
      "fullUrl": "urn:uuid:267e94d9-9a59-4ce5-9e6d-8cde84cb2aaf",
      "resource": {
        "resourceType": "Condition",
        "id": "267e94d9-9a59-4ce5-9e6d-8cde84cb2aaf",
        "meta": {
          "profile": [
            "http://hl7.org/fhir/us/vrdr/StructureDefinition/VRDR-Cause-Of-Death-Condition"
          ]
        },
        "category": [
          {
            "coding": [
              {
                "system": "http://snomed.info/sct",
                "code": "16100001",
                "display": "Death Diagnosis"
              }
            ]
          }
        ],
        "code": {
          "text": "Eclampsia"
        },
        "subject": {
          "reference": "urn:uuid:85a5e343-8feb-43f0-8c7f-79b1569fa753"
        },
        "onsetString": "3 months",
        "asserter": {
          "reference": "urn:uuid:30b21d4f-797c-419f-9db1-eb21ca6b1898"
        }
      }
    },
    {
      "fullUrl": "urn:uuid:fa24c43e-5921-4096-a9d4-0b9f30f887d0",
      "resource": {
        "resourceType": "Observation",
        "id": "fa24c43e-5921-4096-a9d4-0b9f30f887d0",
        "meta": {
          "profile": [
            "http://hl7.org/fhir/us/vrdr/StructureDefinition/VRDR-Examiner-Contacted"
          ]
        },
        "status": "final",
        "code": {
          "coding": [
            {
              "system": "http://loinc.org",
              "code": "74497-9",
              "display": "Medical examiner or coroner was contacted [US Standard Certificate of Death]"
            }
          ]
        },
        "subject": {
          "reference": "urn:uuid:85a5e343-8feb-43f0-8c7f-79b1569fa753"
        },
        "valueCodeableConcept": {
          "coding": [
            {
              "system": "urn:oid:2.16.840.1.113883.12.136",
              "code": "Y",
              "display": "Yes"
            }
          ]
        }
      }
    },
    {
      "fullUrl": "urn:uuid:b6a858ab-e0fd-49b7-8462-0a96d472785e",
      "resource": {
        "resourceType": "Observation",
        "id": "b6a858ab-e0fd-49b7-8462-0a96d472785e",
        "meta": {
          "profile": [
            "http://hl7.org/fhir/us/vrdr/StructureDefinition/VRDR-Manner-of-Death"
          ]
        },
        "status": "final",
        "code": {
          "coding": [
            {
              "system": "http://loinc.org",
              "code": "69449-7",
              "display": "Manner of death"
            }
          ]
        },
        "subject": {
          "reference": "urn:uuid:85a5e343-8feb-43f0-8c7f-79b1569fa753"
        },
        "performer": [
          {
            "reference": "urn:uuid:30b21d4f-797c-419f-9db1-eb21ca6b1898"
          }
        ],
        "valueCodeableConcept": {
          "coding": [
            {
              "system": "http://snomed.info/sct",
              "code": "38605008",
              "display": "Natural death"
            }
          ]
        }
      }
    },
    {
      "fullUrl": "urn:uuid:324b8717-a44e-418d-986a-32b50b89ef5a",
      "resource": {
        "resourceType": "Observation",
        "id": "324b8717-a44e-418d-986a-32b50b89ef5a",
        "meta": {
          "profile": [
            "http://hl7.org/fhir/us/vrdr/StructureDefinition/VRDR-Autopsy-Performed-Indicator"
          ]
        },
        "status": "final",
        "code": {
          "coding": [
            {
              "system": "http://loinc.org",
              "code": "85699-7",
              "display": "Autopsy was performed"
            }
          ]
        },
        "subject": {
          "reference": "urn:uuid:85a5e343-8feb-43f0-8c7f-79b1569fa753"
        },
        "valueCodeableConcept": {
          "coding": [
            {
              "system": "urn:oid:2.16.840.1.113883.12.136",
              "code": "Y",
              "display": "Yes"
            }
          ]
        },
        "component": [
          {
            "code": {
              "coding": [
                {
                  "system": "http://loinc.org",
                  "code": "69436-4",
                  "display": "Autopsy results available"
                }
              ]
            },
            "valueCodeableConcept": {
              "coding": [
                {
                  "system": "urn:oid:2.16.840.1.113883.12.136",
                  "code": "Y",
                  "display": "Yes"
                }
              ]
            }
          }
        ]
      }
    },
    {
      "fullUrl": "urn:uuid:82797363-8458-47f1-b566-5b6fbcccc384",
      "resource": {
        "resourceType": "Observation",
        "id": "82797363-8458-47f1-b566-5b6fbcccc384",
        "meta": {
          "profile": [
            "http://hl7.org/fhir/us/vrdr/StructureDefinition/VRDR-Decedent-Disposition-Method"
          ]
        },
        "extension": [
          {
            "url": "http://hl7.org/fhir/us/vrdr/StructureDefinition/VRDR-Observation-Location",
            "valueReference": {
              "reference": "urn:uuid:a107a777-86d7-4ec9-a596-302a063e3fa3"
            }
          }
        ],
        "status": "final",
        "code": {
          "coding": [
            {
              "system": "http://loinc.org",
              "code": "80905-3",
              "display": "Body disposition method"
            }
          ]
        },
        "subject": {
          "reference": "urn:uuid:85a5e343-8feb-43f0-8c7f-79b1569fa753"
        },
        "performer": [
          {
            "reference": "urn:uuid:cd7fee50-756d-48b1-96e3-d98e0f51c5f0"
          }
        ],
        "valueCodeableConcept": {
          "coding": [
            {
              "system": "http://snomed.info/sct",
              "code": "449961000124104",
              "display": "Patient status determination, deceased and cremated"
            }
          ]
        }
      }
    },
    {
      "fullUrl": "urn:uuid:ada96a68-fb05-454e-a3f2-1163d166b55a",
      "resource": {
        "resourceType": "Observation",
        "id": "ada96a68-fb05-454e-a3f2-1163d166b55a",
        "meta": {
          "profile": [
            "http://hl7.org/fhir/us/vrdr/StructureDefinition/VRDR-Decedent-Pregnancy"
          ]
        },
        "status": "final",
        "code": {
          "coding": [
            {
              "system": "http://loinc.org",
              "code": "69442-2",
              "display": "Timing of recent pregnancy in relation to death"
            }
          ]
        },
        "subject": {
          "reference": "urn:uuid:85a5e343-8feb-43f0-8c7f-79b1569fa753"
        },
        "valueCodeableConcept": {
          "coding": [
            {
              "system": "urn:oid:2.16.840.1.114222.4.5.274",
              "code": "PHC1261",
              "display": "Pregnant at the time of death"
            }
          ]
        }
      }
    },
    {
      "fullUrl": "urn:uuid:78b4405d-61ba-458e-989b-c0b38fb3cd1e",
      "resource": {
        "resourceType": "Observation",
        "id": "78b4405d-61ba-458e-989b-c0b38fb3cd1e",
        "meta": {
          "profile": [
            "http://hl7.org/fhir/us/vrdr/StructureDefinition/VRDR-Tobacco-Use-Contributed-To-Death"
          ]
        },
        "status": "final",
        "code": {
          "coding": [
            {
              "system": "http://loinc.org",
              "code": "69443-0",
              "display": "Did tobacco use contribute to death"
            }
          ]
        },
        "subject": {
          "reference": "urn:uuid:85a5e343-8feb-43f0-8c7f-79b1569fa753"
        },
        "valueCodeableConcept": {
          "coding": [
            {
              "system": "http://snomed.info/sct",
              "code": "373066001",
              "display": "Yes"
            }
          ]
        }
      }
    },
    {
      "fullUrl": "urn:uuid:419d62c9-f702-4ed9-aeb9-1d848dcf9e74",
      "resource": {
        "resourceType": "Observation",
        "id": "419d62c9-f702-4ed9-aeb9-1d848dcf9e74",
        "meta": {
          "profile": [
            "http://hl7.org/fhir/us/vrdr/StructureDefinition/VRDR-Decedent-Military-Service"
          ]
        },
        "status": "final",
        "code": {
          "coding": [
            {
              "system": "http://loinc.org",
              "code": "55280-2",
              "display": "Military service Narrative"
            }
          ]
        },
        "subject": {
          "reference": "urn:uuid:85a5e343-8feb-43f0-8c7f-79b1569fa753"
        },
        "valueCodeableConcept": {
          "coding": [
            {
              "system": "urn:oid:2.16.840.1.113883.12.136",
              "code": "N",
              "display": "No"
            }
          ]
        }
      }
    }
  ]
}
