{
  "resourceType" : "Bundle",
  "id" : "DeathRecordSubmissionMessage-Example1",
  "meta" : {
    "profile" : ["http://cdc.gov/nchs/nvss/fhir/vital-records-messaging/StructureDefinition/VRM-DeathRecordSubmissionMessage"]
  },
  "type" : "message",
  "timestamp" : "2021-05-20T00:00:00Z",
  "entry" : [{
    "fullUrl" : "http://www.example.org/fhir/Header/DeathRecordSubmissionHeaderExample1",
    "resource" : {
      "resourceType" : "MessageHeader",
      "id" : "DeathRecordSubmissionHeaderExample1",
      "meta" : {
        "profile" : ["http://cdc.gov/nchs/nvss/fhir/vital-records-messaging/StructureDefinition/VRM-SubmissionHeader"]
      },
      "text" : {
        "status" : "generated",
        "div" : "<div xmlns=\"http://www.w3.org/1999/xhtml\"><p><b>Generated Narrative: MessageHeader</b><a name=\"DeathRecordSubmissionHeaderExample1\"> </a></p><div style=\"display: inline-block; background-color: #d9e0e7; padding: 6px; margin: 4px; border: 1px solid #8da1b4; border-radius: 5px; line-height: 60%\"><p style=\"margin-bottom: 0px\">Resource MessageHeader &quot;DeathRecordSubmissionHeaderExample1&quot; </p><p style=\"margin-bottom: 0px\">Profile: <a href=\"StructureDefinition-VRM-SubmissionHeader.html\">Death Message Header</a></p></div><p><b>event</b>: <a href=\"http://nchs.cdc.gov/vrdr_submission\">http://nchs.cdc.gov/vrdr_submission</a></p><h3>Destinations</h3><table class=\"grid\"><tr><td style=\"display: none\">-</td><td><b>Endpoint</b></td></tr><tr><td style=\"display: none\">*</td><td><a href=\"http://nchs.cdc.gov/vrdr_submission\">http://nchs.cdc.gov/vrdr_submission</a></td></tr></table><h3>Sources</h3><table class=\"grid\"><tr><td style=\"display: none\">-</td><td><b>Endpoint</b></td></tr><tr><td style=\"display: none\">*</td><td><a href=\"https://sos.ny.gov/vitalrecords\">https://sos.ny.gov/vitalrecords</a></td></tr></table><p><b>focus</b>: </p><ul><li><a href=\"#Parameters_ParametersDeathExample1\">See above (http://www.example.org/fhir/Parameters/ParametersDeathExample1)</a></li><li><a href=\"#Bundle_DummyDeathBundle\">See above (http://www.example.org/fhir/Bundle/DummyDeathBundle)</a></li></ul></div>"
      },
      "eventUri" : "http://nchs.cdc.gov/vrdr_submission",
      "destination" : [{
        "endpoint" : "http://nchs.cdc.gov/vrdr_submission"
      }],
      "source" : {
        "endpoint" : "https://sos.ny.gov/vitalrecords"
      },
      "focus" : [{
        "reference" : "http://www.example.org/fhir/Parameters/ParametersDeathExample1"
      },
      {
        "reference" : "http://www.example.org/fhir/Bundle/DummyDeathBundle"
      }]
    }
  },
  {
    "fullUrl" : "http://www.example.org/fhir/Parameters/ParametersDeathExample1",
    "resource" : {
      "resourceType" : "Parameters",
      "id" : "ParametersDeathExample1",
      "meta" : {
        "profile" : ["http://cdc.gov/nchs/nvss/fhir/vital-records-messaging/StructureDefinition/VRM-MessageParameters"]
      },
      "parameter" : [{
        "name" : "jurisdiction_id",
        "valueString" : "NY"
      },
      {
        "name" : "cert_no",
        "valueUnsignedInt" : 111111
      },
      {
        "name" : "state_auxiliary_id",
        "valueString" : "abcdef10"
      }]
    }
  },
  {
    "fullUrl" : "http://www.example.org/fhir/Bundle/DummyDeathBundle",
    "resource" : {
      "resourceType" : "Bundle",
      "id" : "DummyDeathBundle",
      "meta" : {
        "profile" : ["http://cdc.gov/nchs/nvss/fhir/vital-records-messaging/StructureDefinition/VRM-MessageBundle"]
      },
      "type" : "collection",
      "entry" : [{
        "fullUrl" : "http://www.example.org/fhir/Parameters/ParametersDeathExample1",
        "resource" : {
          "resourceType" : "Parameters",
          "id" : "ParametersDeathExample1",
          "meta" : {
            "profile" : ["http://cdc.gov/nchs/nvss/fhir/vital-records-messaging/StructureDefinition/VRM-MessageParameters"]
          },
          "parameter" : [{
            "name" : "jurisdiction_id",
            "valueString" : "NY"
          },
          {
            "name" : "cert_no",
            "valueUnsignedInt" : 111111
          },
          {
            "name" : "state_auxiliary_id",
            "valueString" : "abcdef10"
          }]
        }
      }]
    }
  }]
}