<?xml version="1.0" encoding="UTF-8"?>

<Bundle xmlns="http://hl7.org/fhir">
  <id value="DeathRecordSubmissionMessage-Example1"/>
  <meta>
    <profile value="http://cdc.gov/nchs/nvss/fhir/vital-records-messaging/StructureDefinition/VRM-DeathRecordSubmissionMessage"/>
  </meta>
  <type value="message"/>
  <timestamp value="2021-05-20T00:00:00Z"/>
  <entry>
    <fullUrl value="http://www.example.org/fhir/Header/DeathRecordSubmissionHeaderExample1"/>
    <resource>
      <MessageHeader>
        <id value="DeathRecordSubmissionHeaderExample1"/>
        <meta>
          <profile value="http://cdc.gov/nchs/nvss/fhir/vital-records-messaging/StructureDefinition/VRM-SubmissionHeader"/>
        </meta>
        <text>
          <status value="generated"/><div xmlns="http://www.w3.org/1999/xhtml"><a name="MessageHeader_DeathRecordSubmissionHeaderExample1"> </a><p class="res-header-id"><b>Generated Narrative: MessageHeader DeathRecordSubmissionHeaderExample1</b></p><a name="DeathRecordSubmissionHeaderExample1"> </a><a name="hcDeathRecordSubmissionHeaderExample1"> </a><div style="display: inline-block; background-color: #d9e0e7; padding: 6px; margin: 4px; border: 1px solid #8da1b4; border-radius: 5px; line-height: 60%"><p style="margin-bottom: 0px"/><p style="margin-bottom: 0px">Profile: <a href="StructureDefinition-VRM-SubmissionHeader.html">Submission Message Header</a></p></div><p><b>event</b>: <a href="http://nchs.cdc.gov/vrdr_submission">http://nchs.cdc.gov/vrdr_submission</a></p><h3>Destinations</h3><table class="grid"><tr><td style="display: none">-</td><td><b>Endpoint</b></td></tr><tr><td style="display: none">*</td><td><a href="http://nchs.cdc.gov/vrdr_submission">http://nchs.cdc.gov/vrdr_submission</a></td></tr></table><h3>Sources</h3><table class="grid"><tr><td style="display: none">-</td><td><b>Endpoint</b></td></tr><tr><td style="display: none">*</td><td><a href="https://sos.ny.gov/vitalrecords">https://sos.ny.gov/vitalrecords</a></td></tr></table><p><b>focus</b>: </p><ul><li><a href="Bundle-DeathRecordSubmissionMessage-Example1.html#http-//www.example.org/fhir/Parameters/ParametersDeathExample1">Bundle: type = message; timestamp = 2021-05-20 00:00:00+0000</a></li><li><a href="Bundle-DeathRecordSubmissionMessage-Example1.html#http-//www.example.org/fhir/Bundle/DummyDeathBundle">Bundle: type = message; timestamp = 2021-05-20 00:00:00+0000</a></li></ul></div>
        </text>
        <eventUri value="http://nchs.cdc.gov/vrdr_submission"/>
        <destination>
          <endpoint value="http://nchs.cdc.gov/vrdr_submission"/>
        </destination>
        <source>
          <endpoint value="https://sos.ny.gov/vitalrecords"/>
        </source>
        <focus>
          <reference value="http://www.example.org/fhir/Parameters/ParametersDeathExample1"/>
        </focus>
        <focus>
          <reference value="http://www.example.org/fhir/Bundle/DummyDeathBundle"/>
        </focus>
      </MessageHeader>
    </resource>
  </entry>
  <entry>
    <fullUrl value="http://www.example.org/fhir/Parameters/ParametersDeathExample1"/>
    <resource>
      <Parameters>
        <id value="ParametersDeathExample1"/>
        <meta>
          <profile value="http://cdc.gov/nchs/nvss/fhir/vital-records-messaging/StructureDefinition/VRM-MessageParameters"/>
        </meta>
        <parameter>
          <name value="cert_no"/>
          <valueUnsignedInt value="111111"/>
        </parameter>
        <parameter>
          <name value="jurisdiction_id"/>
          <valueString value="NY"/>
        </parameter>
        <parameter>
          <name value="state_auxiliary_id"/>
          <valueString value="abcdef10"/>
        </parameter>
      </Parameters>
    </resource>
  </entry>
  <entry>
    <fullUrl value="http://www.example.org/fhir/Bundle/DummyDeathBundle"/>
    <resource>
      <Bundle>
        <id value="DummyDeathBundle"/>
        <meta>
          <profile value="http://cdc.gov/nchs/nvss/fhir/vital-records-messaging/StructureDefinition/VRM-MessageBundle"/>
        </meta>
        <type value="collection"/>
        <entry>
          <fullUrl value="http://www.example.org/fhir/Parameters/ParametersDeathExample1"/>
          <resource>
            <Parameters>
              <id value="ParametersDeathExample1"/>
              <meta>
                <profile value="http://cdc.gov/nchs/nvss/fhir/vital-records-messaging/StructureDefinition/VRM-MessageParameters"/>
              </meta>
              <parameter>
                <name value="cert_no"/>
                <valueUnsignedInt value="111111"/>
              </parameter>
              <parameter>
                <name value="jurisdiction_id"/>
                <valueString value="NY"/>
              </parameter>
              <parameter>
                <name value="state_auxiliary_id"/>
                <valueString value="abcdef10"/>
              </parameter>
            </Parameters>
          </resource>
        </entry>
      </Bundle>
    </resource>
  </entry>
</Bundle>